{
    "resourceType": "Bundle",
    "id": "aef77afb-7e3c-427a-8657-2c427f71a271",
    "identifier": {
      "system": "https://tools.ietf.org/html/rfc4122",
      "value": "0c44a712-22b7-4fa9-a495-9889860b7eef"
    },
    "type": "message",
    "entry": [
      {
        "fullUrl": "urn:uuid:aef77afb-7e3c-427a-8657-2c427f71a271",
        "resource": {
          "resourceType": "MessageHeader",
          "eventCoding": {
            "system": "https://fhir.nhs.uk/CodeSystem/message-event",
            "code": "prescription-order",
            "display": "Prescription Order"
          },
          "sender": {
            "identifier": {
              "system": "https://fhir.nhs.uk/Id/ods-organization-code",
              "value": "RBA"
            },
            "display": "RAZIA|ALI"
          },
          "source": {
            "endpoint": "urn:nhs-uk:addressing:ods:RBA"
          },
          "destination": [
            {
                "endpoint": "https://sandbox.api.service.nhs.uk/electronic-prescriptions/$post-message",
                "receiver": {
                    "identifier": {
                        "system": "https://fhir.nhs.uk/Id/ods-organization-code",
                        "value": "X26"
                    },
                    "display": "NHS Digital"
                }
            }
          ],
          "focus": [
            {
              "reference": "urn:uuid:56166769-c1c4-4d07-afa8-132b5dfca666"
            },
            {
              "reference": "urn:uuid:a54219b8-f741-4c47-b662-e4f8dfa49ab6"
            }
          ]
        }
      },
      {
        "fullUrl": "urn:uuid:a54219b8-f741-4c47-b662-e4f8dfa49ab6",
        "resource": {
          "resourceType": "MedicationRequest",
          "extension": [
            {
              "url": "https://fhir.nhs.uk/StructureDefinition/Extension-DM-prescriptionType",
              "valueCoding": {
                "system": "https://fhir.nhs.uk/CodeSystem/prescription-type",
                "code": "1001",
                "display": "Outpatient Community Prescriber - Medical Prescriber"
              }
            },
            {
              "url": "https://fhir.hl7.org.uk/StructureDefinition/Extension-UKCore-MedicationRepeatInformation",
              "extension": [
                {
                  "url": "numberOfRepeatPrescriptionsAllowed",
                  "valueUnsignedInt": 6
                },
                {
                  "url": "authorisationExpiryDate",
                  "valueDateTime": "2020-12-07"
                }
              ]
            }
          ],
          "identifier": [
            {
              "system": "https://fhir.nhs.uk/Id/prescription-order-item-number",
              "value": "a54219b8-f741-4c47-b662-e4f8dfa49ab6"
            }
          ],
          "status": "active",
          "intent": "order",
          "category": [
            {
              "coding": [
                {
                  "system": "http://terminology.hl7.org/CodeSystem/medicationrequest-category",
                  "code": "community",
                  "display": "Community"
                }
              ]
            }
          ],
          "medicationCodeableConcept": {
            "coding": [
              {
                "system": "http://snomed.info/sct",
                "code": "15517911000001104",
                "display": "Methotrexate 10mg/0.2ml solution for injection pre-filled syringes"
              }
            ]
          },
          "subject": {
            "reference": "urn:uuid:78d3c2eb-009e-4ec8-a358-b042954aa9b2"
          },
          "authoredOn": "2020-12-21T18:15:29+00:00",
          "requester": {
            "reference": "urn:uuid:56166769-c1c4-4d07-afa8-132b5dfca666"
          },
          "groupIdentifier": {
            "extension": [
              {
                "url": "https://fhir.nhs.uk/StructureDefinition/Extension-DM-PrescriptionId",
                "valueIdentifier": {
                  "system": "https://fhir.nhs.uk/Id/prescription",
                  "value": "d61df424-604d-49be-b9ad-9e2064785e18"
                }
              }
            ],
            "system": "https://fhir.nhs.uk/Id/prescription-order-number",
            "value": "82D996-Z9243B-11EBA8"
          },
          "courseOfTherapyType": {
            "coding": [
              {
                "system": "https://fhir.nhs.uk/CodeSystem/medicationrequest-course-of-therapy",
                "code": "continuous-repeat-dispensing",
                "display": "Continuous long term (repeat dispensing)"
              }
            ]
          },
          "dosageInstruction": [
            {
              "text": "10 milligram, Inject, Subcutaneous route, once weekly",
              "timing": {
                "repeat": {
                  "frequency": 5,
                  "period": 1,
                  "periodUnit": "d",
                  "boundsDuration": {
                    "value": 10,
                    "unit": "day",
                    "system": "http://unitsofmeasure.org",
                    "code": "d"
                  }
                }
              },
              "method": {
                "coding": [
                  {
                    "system": "http://snomed.info/sct",
                    "code": "422145002",
                    "display": "Inject"
                  }
                ]
              },
              "route": {
                "coding": [
                  {
                    "system": "http://snomed.info/sct",
                    "code": "34206005",
                    "display": "Subcutaneous route"
                  }
                ]
              },
              "doseAndRate": [
                {
                  "doseQuantity": {
                    "value": 10,
                    "unit": "milligram",
                    "system": "http://unitsofmeasure.org",
                    "code": "mg"
                  }
                }
              ]
            }
          ],
          "dispenseRequest": {
            "extension": [
              {
                "url": "https://fhir.nhs.uk/StructureDefinition/Extension-DM-PerformerSiteType",
                "valueCoding": {
                  "system": "https://fhir.nhs.uk/CodeSystem/dispensing-site-preference",
                  "code": "P1"
                }
              }
            ],
            "validityPeriod": {
              "start": "2020-06-10",
              "end": "2020-12-07"
            },
            "quantity": {
              "value": 63,
              "unit": "tablet",
              "system": "http://snomed.info/sct",
              "code": "428673006"
            },
            "expectedSupplyDuration": {
              "value": 28,
              "unit": "days",
              "system": "http://unitsofmeasure.org",
              "code": "d"
            }
          },
          "substitution": {
            "allowedBoolean": false
          }
        }
      },
      {
        "fullUrl": "urn:uuid:78d3c2eb-009e-4ec8-a358-b042954aa9b2",
        "resource": {
          "resourceType": "Patient",
          "identifier": [
            {
              "extension": [
                {
                  "url": "https://fhir.hl7.org.uk/StructureDefinition/Extension-UKCore-NHSNumberVerificationStatus",
                  "valueCodeableConcept": {
                    "coding": [
                      {
                        "system": "https://fhir.hl7.org.uk/CodeSystem/UKCore-NHSNumberVerificationStatus",
                        "code": "01",
                        "display": "Number present and verified"
                      }
                    ]
                  }
                }
              ],
              "system": "https://fhir.nhs.uk/Id/nhs-number",
              "value": "9449305552"
            }
          ],
          "name": [
            {
              "use": "usual",
              "family": "CORY",
              "given": [
                "ETTA"
              ],
              "prefix": [
                "MISS"
              ]
            }
          ],
          "gender": "female",
          "birthDate": "1999-01-04",
          "address": [
            {
              "use": "home",
              "line": [
                "123 Dale Avenue",
                "Long Eaton",
                "Nottingham"
              ],
              "postalCode": "NG10 1NP"
            }
          ],
          "managingOrganization": {
            "identifier": {
              "system": "https://fhir.nhs.uk/Id/ods-organization-code",
              "value": "B81001"
            }
          },
          "generalPractitioner": [
            {
              "identifier": {
                "system": "https://fhir.nhs.uk/Id/ods-organization-code",
                "value": "B81001"
              }
            }
          ]
        }
      },
      {
        "fullUrl": "urn:uuid:56166769-c1c4-4d07-afa8-132b5dfca666",
        "resource": {
          "resourceType": "PractitionerRole",
          "identifier": [
            {
              "system": "https://fhir.nhs.uk/Id/sds-role-profile-id",
              "value": "100102238986"
            },
            {
              "system": "https://fhir.hl7.org.uk/Id/nhsbsa-spurious-code",
              "value": "SP123456"
            }
          ],
          "practitioner": {
            "reference": "urn:uuid:a8c85454-f8cb-498d-9629-78e2cb5fa47a"
          },
          "organization": {
            "reference": "urn:uuid:3b4b03a5-52ba-4ba6-9b82-70350aa109d8"
          },
          "code": [
            {
              "coding": [
                {
                  "system": "https://fhir.hl7.org.uk/CodeSystem/UKCore-SDSJobRoleName",
                  "code": "R8000",
                  "display": "Clinical Practitioner Access Role"
                }
              ]
            }
          ],
          "healthcareService": [
            {
              "reference": "urn:uuid:54b0506d-49af-4245-9d40-d7d64902055e",
              "display": "SOMERSET BOWEL CANCER SCREENING CENTRE"
            }
          ],
          "telecom": [
            {
              "system": "phone",
              "value": "01234567890",
              "use": "work"
            }
          ]
        }
      },
      {
        "fullUrl": "urn:uuid:a8c85454-f8cb-498d-9629-78e2cb5fa47a",
        "resource": {
          "resourceType": "Practitioner",
          "identifier": [
            {
              "system": "https://fhir.nhs.uk/Id/sds-user-id",
              "value": "3415870201"
            },
            {
              "system": "https://fhir.hl7.org.uk/Id/gmc-number",
              "value": "4428981"
            }
          ],
          "name": [
            {
              "family": "Edwards",
              "given": [
                "Thomas"
              ],
              "prefix": [
                "DR"
              ]
            }
          ]
        }
      },
      {
        "fullUrl": "urn:uuid:3b4b03a5-52ba-4ba6-9b82-70350aa109d8",
        "resource": {
          "resourceType": "Organization",
          "identifier": [
            {
              "system": "https://fhir.nhs.uk/Id/ods-organization-code",
              "value": "RBA"
            }
          ],
          "type": [
            {
              "coding": [
                {
                  "system": "https://fhir.nhs.uk/CodeSystem/organisation-role",
                  "code": "RO197",
                  "display": "NHS TRUST"
                }
              ]
            }
          ],
          "name": "TAUNTON AND SOMERSET NHS FOUNDATION TRUST",
          "address": [
            {
              "line": [
                "MUSGROVE PARK HOSPITAL",
                "PARKFIELD DRIVE",
                "TAUNTON"
              ],
              "postalCode": "TA1 5DA"
            }
          ],
          "telecom": [
            {
              "system": "phone",
              "value": "01823333444",
              "use": "work"
            }
          ]
        }
      },
      {
        "fullUrl": "urn:uuid:54b0506d-49af-4245-9d40-d7d64902055e",
        "resource": {
          "resourceType": "HealthcareService",
          "identifier": [
            {
              "use": "usual",
              "system": "https://fhir.nhs.uk/Id/ods-organization-code",
              "value": "A99968"
            }
          ],
          "active": true,
          "providedBy": {
            "identifier": {
              "system": "https://fhir.nhs.uk/Id/ods-organization-code",
              "value": "RBA"
            }
          },
          "location": [
            {
              "reference": "urn:uuid:8a5d7d67-64fb-44ec-9802-2dc214bb3dcb"
            }
          ],
          "name": "SOMERSET BOWEL CANCER SCREENING CENTRE",
          "telecom": [
            {
              "system": "phone",
              "value": "01823 333444",
              "use": "work"
            }
          ]
        }
      },
      {
        "fullUrl": "urn:uuid:8a5d7d67-64fb-44ec-9802-2dc214bb3dcb",
        "resource": {
          "resourceType": "Location",
          "identifier": [
            {
             "system": "https://fhir.rba.nhs.uk/Id/Location",
              "value": "10008800708"
            }
          ],
          "status": "active",
          "mode": "instance",
          "address": {
            "use": "work",
            "line": [
              "MUSGROVE PARK HOSPITAL"
            ],
            "city": "TAUNTON",
            "postalCode": "TA1 5DA"
          }
        }
      }
    ]
  }