{
  "resourceType": "Bundle",
  "id": "homecare-update-reduced",
  "identifier": {
    "system": "https://tools.ietf.org/html/rfc4122",
    "value": "d6b902f4-7cc0-44f1-a919-a86d6ffbccb9"
  },
  "type": "message",
  "entry": [
    {
      "fullUrl": "urn:uuid:4f51f97f-a4b8-4756-bac9-b9bc7af8dc23",
      "resource": {
        "resourceType": "MessageHeader",
        "id": "4f51f97f-a4b8-4756-bac9-b9bc7af8dc23",
        "eventCoding": {
          "system": "https://fhir.nhs.uk/CodeSystem/message-event",
          "code": "prescription-order-update",
          "display": "Prescription Order Update"
        },
        "destination": [
          {
            "endpoint": "https://sandbox.api.service.nhs.uk/electronic-prescriptions/$post-message",
            "receiver": {
              "identifier": {
                "system": "https://fhir.nhs.uk/Id/ods-organization-code",
                "value": "X2601"
              },
              "display": "NHS Digital Spine"
            }
          }
        ],
        "sender": {
          "reference": "urn:uuid:56166769-c1c4-4d07-afa8-132b5dfca666",
          "display": "RAZIA|ALI"
        },
        "source": {
          "name": "DJM",
          "endpoint": "urn:nhs-uk:addressing:ods:RBA"
        },
        "focus": [
          {
            "reference": "urn:uuid:78d3c2eb-009e-4ec8-a358-b042954aa9b2"
          },
          {
            "reference": "urn:uuid:a54219b8-f741-4c47-b662-e4f8dfa49ab6"
          }
        ]
      }
    },
    {
      "fullUrl": "urn:uuid:a54219b8-f741-4c47-b662-e4f8dfa49ab6",
      "resource": {
        "resourceType": "MedicationRequest",
        "id": "a54219b8-f741-4c47-b662-e4f8dfa49ab6",
        "meta": {
          "versionId": "2",
          "lastUpdated": "2020-07-13T12:30:00+00:00"
        },
        "identifier": [
          {
            "system": "https://fhir.nhs.uk/Id/prescription-order-item-number",
            "value": "a54219b8-f741-4c47-b662-e4f8dfa49ab6"
          }
        ],
        "status": "cancelled",
        "statusReason": {
          "coding": [
            {
              "system": "https://fhir.nhs.uk/CodeSystem/medicationrequest-status-reason",
              "code": "0001",
              "display": "Prescribing Error"
            }
          ]
        },
        "intent": "order",
        "medicationCodeableConcept": {
          "coding": [
            {
              "system": "http://snomed.info/sct",
              "code": "15517911000001104",
              "display": "Methotrexate 10mg/0.2ml solution for injection pre-filled syringes"
            }
          ]
        },
        "subject": {
          "reference": "urn:uuid:78d3c2eb-009e-4ec8-a358-b042954aa9b2"
        },
        "authoredOn": "2020-07-13T12:00:00+00:00",
        "requester": {
          "reference": "urn:uuid:56166769-c1c4-4d07-afa8-132b5dfca666"
        },
        "groupIdentifier": {
          "extension": [
            {
              "url": "https://fhir.nhs.uk/StructureDefinition/Extension-DM-PrescriptionId",
              "valueIdentifier": {
                "system": "https://fhir.nhs.uk/Id/prescription",
                "value": "ad945a29-85f8-439a-b590-6789719adc16"
              }
            }
          ],
          "system": "https://fhir.nhs.uk/Id/prescription-order-number",
          "value": "DC2C66-A1B2C3-23407B"
        },
        "substitution": {
          "allowedBoolean": false
        }
      }
    },
    {
      "fullUrl": "urn:uuid:78d3c2eb-009e-4ec8-a358-b042954aa9b2",
      "resource": {
        "resourceType": "Patient",
        "id": "78d3c2eb-009e-4ec8-a358-b042954aa9b2",
        "identifier": [
          {
            "extension": [
              {
                "url": "https://fhir.hl7.org.uk/StructureDefinition/Extension-UKCore-NHSNumberVerificationStatus",
                "valueCodeableConcept": {
                  "coding": [
                    {
                      "system": "https://fhir.hl7.org.uk/CodeSystem/UKCore-NHSNumberVerificationStatus",
                      "code": "01",
                      "display": "Number present and verified"
                    }
                  ]
                }
              }
            ],
            "system": "https://fhir.nhs.uk/Id/nhs-number",
            "value": "9453740519"
          }
        ],
        "name": [
          {
            "use": "official",
            "family": "CORY",
            "given": [
              "ETTA"
            ],
            "prefix": [
              "MISS"
            ]
          }
        ],
        "gender": "female",
        "birthDate": "1999-01-04",
        "address": [
          {
            "use": "home",
            "line": [
              "123 Dale Avenue",
              "Long Eaton",
              "Nottingham"
            ],
            "postalCode": "NG10 1NP"
          }
        ],
        "managingOrganization": {
          "identifier": {
            "system": "https://fhir.nhs.uk/Id/ods-organization-code",
            "value": "B81001"
          }
        }
      }
    },
    {
      "fullUrl": "urn:uuid:56166769-c1c4-4d07-afa8-132b5dfca666",
      "resource": {
        "resourceType": "PractitionerRole",
        "id": "56166769-c1c4-4d07-afa8-132b5dfca666",
        "identifier": [
          {
            "system": "https://fhir.nhs.uk/Id/sds-role-profile-id",
            "value": "100102238986"
          },
          {
            "system": "https://fhir.hl7.org.uk/Id/nhsbsa-spurious-code",
            "value": "2345213"
          }
        ],
        "practitioner": {
          "identifier": [
            {
              "system": "https://fhir.nhs.uk/Id/sds-user-id",
              "value": "3415870201"
            }
          ],
          "display": "DR RAZIA ALI"
        },
        "organization": {
          "identifier": [
            {
              "system": "https://fhir.nhs.uk/Id/ods-organization-code",
              "value": "RBA"
            }
          ],
          "display": "TAUNTON AND SOMERSET NHS FOUNDATION TRUST"
        },
        "specialty": [
          {
            "coding": [
              {
                "system": "https://fhir.nhs.uk/CodeSystem/NHSDataModelAndDictionary-clinical-specialty",
                "code": "370",
                "display": "MEDICAL ONCOLOGY"
              }
            ]
          }
        ],
        "code": [
          {
            "coding": [
              {
                "system": "https://fhir.hl7.org.uk/CodeSystem/UKCore-SDSJobRoleName",
                "code": "R8000",
                "display": "Clinical Practitioner Access Role"
              }
            ]
          }
        ],
        "healthcareService": [
          {
            "identifier": {
              "use": "official",
              "system": "https://fhir.nhs.uk/Id/ods-organization-code",
              "value": "A99968"
            },
            "display": "SOMERSET BOWEL CANCER SCREENING CENTRE"
          }
        ],
        "telecom": [
          {
            "system": "phone",
            "value": "01234567890",
            "use": "work"
          }
        ]
      }
    }
  ]
}