{
    "resourceType": "Bundle",
    "id": "homecare-update",
    "meta": {
        "lastUpdated": "2020-11-02T11:13:30+00:00"
    },
    "identifier": {
        "system": "https://tools.ietf.org/html/rfc4122",
        "value": "ea50b4a2-0110-4aaa-a3f5-65707e713ae9"
    },
    "type": "message",
    "timestamp": "2020-11-02T11:14:30+00:00",
    "entry": [
        {
            "fullUrl": "urn:uuid:4f51f97f-a4b8-4756-bac9-b9bc7af8dc23",
            "resource": {
                "resourceType": "MessageHeader",
                "extension": [
                    {
                        "url": "https://fhir.nhs.uk/StructureDefinition/Extension-Spine-MessageHeader-messageId",
                        "valueIdentifier": {
                            "system": "https://tools.ietf.org/html/rfc4122",
                            "value": "35a6e463-60cf-482e-84b7-ad41b55e740d"
                        }
                    },
                    {
                        "url": "https://fhir.nhs.uk/StructureDefinition/Extension-Spine-Message-Status",
                        "valueCoding": {
                            "system": "https://fhir.hl7.org.uk/CodeSystem/message-status",
                            "code": "active",
                            "display": "Active"
                        }
                    }
                ],
                "eventCoding": {
                    "system": "https://fhir.nhs.uk/CodeSystem/message-event",
                    "code": "prescription-order-update",
                    "display": "Prescription Order Update"
                },
                "destination": [
                    {
                        "endpoint": "https://sandbox.api.service.nhs.uk/electronic-prescriptions/$post-message",
                        "receiver": {
                            "identifier": {
                                "system": "https://fhir.nhs.uk/Id/ods-organization-code",
                                "value": "X2601"
                            },
                            "display": "NHS Digital Spine"
                        }
                    }
                ],
                "sender": {
                    "extension": [
                        {
                            "url": "https://fhir.nhs.uk/StructureDefinition/Extension-Spine-MessageHeader-LocalPart",
                            "valueReference": {
                                "identifier": {
                                    "system": "https://fhir.nhs.uk/Id/ods-organization-code",
                                    "value": "A99968"
                                }
                            }
                        }
                    ],
                    "identifier": {
                        "system": "https://fhir.nhs.uk/Id/ods-organization-code",
                        "value": "RBA"
                    },
                    "display": "TAUNTON AND SOMERSET NHS FOUNDATION TRUST"
                },
                "source": {
                    "name": "DJM",
                    "endpoint": "urn:nhs-uk:addressing:ods:RBA"
                },
                "reason": {
                    "coding": [
                        {
                            "system": "https://fhir.nhs.uk/CodeSystem/message-reason-prescription",
                            "code": "cancel",
                            "display": "Cancel"
                        }
                    ]
                },
                "response": {
                    "identifier": "ad945a29-85f8-439a-b590-6789719adc16",
                    "code": "ok"
                },
                "focus": [
                    {
                        "reference": "urn:uuid:78d3c2eb-009e-4ec8-a358-b042954aa9b2"
                    },
                    {
                        "reference": "urn:uuid:a54219b8-f741-4c47-b662-e4f8dfa49ab6"
                    }
                ]
            }
        },
        {
            "fullUrl": "urn:uuid:a54219b8-f741-4c47-b662-e4f8dfa49ab6",
            "resource": {
                "resourceType": "MedicationRequest",
                "meta": {
                    "versionId": "2",
                    "lastUpdated": "2020-07-13T12:30:00+00:00"
                },
                "extension": [
                    {
                        "url": "https://fhir.nhs.uk/StructureDefinition/Extension-DM-ResponsiblePractitioner",
                        "valueReference": {
                            "reference": "urn:uuid:a5acefc1-f8ca-4989-a5ac-34ae36741466"
                        }
                    }
                ],
                "identifier": [
                    {
                        "system": "https://fhir.nhs.uk/Id/prescription-order-item-number",
                        "value": "a54219b8-f741-4c47-b662-e4f8dfa49ab6"
                    }
                ],
                "status": "cancelled",
                "statusReason": {
                    "coding": [
                        {
                            "system": "https://fhir.nhs.uk/CodeSystem/medicationrequest-status-reason",
                            "code": "0001",
                            "display": "Prescribing Error"
                        }
                    ]
                },
                "intent": "order",
                "medicationCodeableConcept": {
                    "coding": [
                        {
                            "system": "http://snomed.info/sct",
                            "code": "15517911000001104",
                            "display": "Methotrexate 10mg/0.2ml solution for injection pre-filled syringes"
                        }
                    ]
                },
                "subject": {
                    "reference": "urn:uuid:78d3c2eb-009e-4ec8-a358-b042954aa9b2"
                },
                "authoredOn": "2020-07-13T12:00:00+00:00",
                "requester": {
                    "reference": "urn:uuid:56166769-c1c4-4d07-afa8-132b5dfca666"
                },
                "groupIdentifier": {
                    "extension": [
                        {
                            "url": "https://fhir.nhs.uk/StructureDefinition/Extension-DM-PrescriptionId",
                            "valueIdentifier": {
                                "system": "https://fhir.nhs.uk/Id/prescription",
                                "value": "ad945a29-85f8-439a-b590-6789719adc16"
                            }
                        }
                    ],
                    "system": "https://fhir.nhs.uk/Id/prescription-order-number",
                    "value": "DC2C66-A1B2C3-23407B"
                },
                "courseOfTherapyType": {
                    "coding": [
                        {
                            "system": "http://terminology.hl7.org/CodeSystem/medicationrequest-course-of-therapy",
                            "code": "continuous",
                            "display": "Continuous long term therapy"
                        }
                    ]
                },
                "substitution": {
                    "allowedBoolean": false
                }
            }
        },
        {
            "fullUrl": "urn:uuid:78d3c2eb-009e-4ec8-a358-b042954aa9b2",
            "resource": {
                "resourceType": "Patient",
                "identifier": [
                    {
                        "extension": [
                            {
                                "url": "https://fhir.hl7.org.uk/StructureDefinition/Extension-UKCore-NHSNumberVerificationStatus",
                                "valueCodeableConcept": {
                                    "coding": [
                                        {
                                            "system": "https://fhir.hl7.org.uk/CodeSystem/UKCore-NHSNumberVerificationStatus",
                                            "code": "01",
                                            "display": "Number present and verified"
                                        }
                                    ]
                                }
                            }
                        ],
                        "system": "https://fhir.nhs.uk/Id/nhs-number",
                        "value": "9453740519"
                    }
                ],
                "name": [
                    {
                        "use": "official",
                        "family": "CORY",
                        "given": [
                            "ETTA"
                        ],
                        "prefix": [
                            "MISS"
                        ]
                    }
                ],
                "gender": "female",
                "birthDate": "1999-01-04",
                "address": [
                    {
                        "use": "home",
                        "line": [
                            "123 Dale Avenue",
                            "Long Eaton",
                            "Nottingham"
                        ],
                        "postalCode": "NG10 1NP"
                    }
                ],
                "generalPractitioner": [
                    {
                        "identifier": {
                            "system": "https://fhir.nhs.uk/Id/ods-organization-code",
                            "value": "B81001"
                        }
                    }
                ]
            }
        },
        {
            "fullUrl": "urn:uuid:56166769-c1c4-4d07-afa8-132b5dfca666",
            "resource": {
                "resourceType": "PractitionerRole",
                "identifier": [
                    {
                        "system": "https://fhir.nhs.uk/Id/sds-role-profile-id",
                        "value": "100102238986"
                    },
                    {
                        "system": "https://fhir.hl7.org.uk/Id/nhsbsa-spurious-code",
                        "value": "2345213"
                    }
                ],
                "practitioner": {
                    "reference": "urn:uuid:a8c85454-f8cb-498d-9629-78e2cb5fa47a"
                },
                "organization": {
                    "reference": "urn:uuid:3b4b03a5-52ba-4ba6-9b82-70350aa109d8"
                },
                "specialty": [
                    {
                      "coding": [
                        {
                          "system": "https://fhir.nhs.uk/CodeSystem/main-specialty",
                          "code": "370",
                          "display": "MEDICAL ONCOLOGY"
                        }
                      ]
                    }
                  ],
                "code": [
                    {
                        "coding": [
                            {
                                "system": "https://fhir.hl7.org.uk/CodeSystem/UKCore-SDSJobRoleName",
                                "code": "R8000",
                                "display": "Clinical Practitioner Access Role"
                            }
                        ]
                    }
                ],
                "healthcareService": [
                    {
                        "reference": "urn:uuid:54b0506d-49af-4245-9d40-d7d64902055e",
                        "identifier": {
                            "use": "official",
                            "system": "https://fhir.nhs.uk/Id/ods-organization-code",
                            "value": "A99968"
                        },
                        "display": "SOMERSET BOWEL CANCER SCREENING CENTRE"
                    }
                ],
                "telecom": [
                    {
                        "system": "phone",
                        "value": "01234567890",
                        "use": "work"
                    }
                ]
            }
        },
        {
            "fullUrl": "urn:uuid:a8c85454-f8cb-498d-9629-78e2cb5fa47a",
            "resource": {
                "resourceType": "Practitioner",
                "identifier": [
                    {
                        "system": "https://fhir.nhs.uk/Id/sds-user-id",
                        "value": "3415870201"
                    },
                    {
                        "system": "https://fhir.hl7.org.uk/Id/gmc-number",
                        "value": "G1234567"
                    },
                    {
                        "system": "https://fhir.hl7.org.uk/Id/din-number",
                        "value": "1234567"
                    }
                ],
                "name": [
                    {
                        "family": "ALI",
                        "given": [
                            "RAZIA"
                        ],
                        "prefix": [
                            "DR"
                        ]
                    }
                ]
            }
        },
        {
            "fullUrl": "urn:uuid:3b4b03a5-52ba-4ba6-9b82-70350aa109d8",
            "resource": {
                "resourceType": "Organization",
                "identifier": [
                    {
                        "system": "https://fhir.nhs.uk/Id/ods-organization-code",
                        "value": "RBA"
                    }
                ],
                "type": [
                    {
                        "coding": [
                            {
                                "system": "https://fhir.nhs.uk/CodeSystem/organisation-role",
                                "code": "197",
                                "display": "NHS TRUST"
                            }
                        ]
                    }
                ],
                "name": "TAUNTON AND SOMERSET NHS FOUNDATION TRUST",
                "telecom": [
                    {
                        "system": "phone",
                        "value": "01823333444",
                        "use": "work"
                    }
                ],
                "address": [
                    {
                        "line": [
                            "MUSGROVE PARK HOSPITAL",
                            "PARKFIELD DRIVE",
                            "TAUNTON"
                        ],
                        "postalCode": "TA1 5DA"
                    }
                ]
            }
        },
        {
            "fullUrl": "urn:uuid:54b0506d-49af-4245-9d40-d7d64902055e",
            "resource": {
                "resourceType": "HealthcareService",
                "identifier": [
                    {
                        "use": "official",
                        "system": "https://fhir.nhs.uk/Id/ods-organization-code",
                        "value": "A99968"
                    }
                ],
                "active": true,
                "providedBy": {
                    "identifier": {
                        "system": "https://fhir.nhs.uk/Id/ods-organization-code",
                        "value": "RBA"
                    }
                },
                "location": [
                    {
                        "reference": "urn:uuid:8a5d7d67-64fb-44ec-9802-2dc214bb3dcb"
                    }
                ],
                "name": "SOMERSET BOWEL CANCER SCREENING CENTRE",
                "telecom": [
                    {
                        "system": "phone",
                        "value": "01823 333444",
                        "use": "work"
                    }
                ]
            }
        },
        {
            "fullUrl": "urn:uuid:8a5d7d67-64fb-44ec-9802-2dc214bb3dcb",
            "resource": {
                "resourceType": "Location",
                "identifier": [
                    {
                        "system": "https://fhir.rba.nhs.uk/Id/Location",
                        "value": "10008800708"
                    }
                ],
                "status": "active",
                "mode": "instance",
                "address": {
                    "use": "work",
                    "line": [
                        "MUSGROVE PARK HOSPITAL"
                    ],
                    "city": "TAUNTON",
                    "postalCode": "TA1 5DA"
                }
            }
        },
        {
            "fullUrl": "urn:uuid:a5acefc1-f8ca-4989-a5ac-34ae36741466",
            "resource": {
                "resourceType": "PractitionerRole",
                "identifier": [
                    {
                        "system": "https://fhir.nhs.uk/Id/sds-role-profile-id",
                        "value": "10012345678"
                    },
                    {
                        "system": "https://fhir.hl7.org.uk/Id/nhsbsa-spurious-code",
                        "value": "2132345"
                    }
                ],
                "practitioner": {
                    "reference": "urn:uuid:e6aa1919-1334-4cb2-9024-b3c9bb0415c1"
                },
                "organization": {
                    "reference": "urn:uuid:3b4b03a5-52ba-4ba6-9b82-70350aa109d8"
                },
                "specialty": [
                    {
                      "coding": [
                        {
                          "system": "https://fhir.nhs.uk/CodeSystem/main-specialty",
                          "code": "100",
                          "display": "GENERAL MEDICINE"
                        }
                      ]
                    }
                  ],
                "code": [
                    {
                        "coding": [
                            {
                                "system": "https://fhir.hl7.org.uk/CodeSystem/UKCore-SDSJobRoleName",
                                "code": "R8000",
                                "display": "Clinical Practitioner Access Role"
                            }
                        ]
                    }
                ]
            }
        },
        {
            "fullUrl": "urn:uuid:e6aa1919-1334-4cb2-9024-b3c9bb0415c1",
            "resource": {
                "resourceType": "Practitioner",
                "identifier": [
                    {
                        "system": "https://fhir.nhs.uk/Id/sds-user-id",
                        "value": "7020134158"
                    },
                    {
                        "system": "https://fhir.hl7.org.uk/Id/gmc-number",
                        "value": "G9999999"
                    },
                    {
                        "system": "https://fhir.hl7.org.uk/Id/din-number",
                        "value": "70201123456"
                    }
                ],
                "name": [
                    {
                        "family": "RAZ",
                        "given": [
                            "SAZ"
                        ],
                        "prefix": [
                            "DR"
                        ]
                    }
                ]
            }
        }
    ]
}