{
    "resourceType": "Bundle",
    "id": "42b94e14-8240-40fd-b32a-359be0dd3c57",
    "identifier": {
        "system": "https://tools.ietf.org/html/rfc4122",
        "value": "42b94e14-8240-40fd-b32a-359be0dd3c57"
    },
    "type": "message",
    "entry": [
        {
            "fullUrl": "urn:uuid:3599c0e9-9292-413e-9270-9a1ef1ead99c",
            "resource": {
                "resourceType": "MessageHeader",
                "eventCoding": {
                    "system": "https://fhir.nhs.uk/CodeSystem/message-event",
                    "code": "prescription-order-response",
                    "display": "Prescription Order Response"
                },
                "destination": [
                    {
                        "endpoint": "urn:nhs-uk:addressing:ods:RBA",
                        "receiver": {
                            "extension": [
                                {
                                    "url": "https://fhir.nhs.uk/StructureDefinition/Extension-Spine-MessageHeader-LocalPart",
                                    "valueReference": {
                                        "identifier": {
                                            "system": "https://fhir.nhs.uk/Id/ods-organization-code",
                                            "value": "A99968"
                                        }
                                    }
                                }
                            ],
                            "identifier": {
                                "system": "https://fhir.nhs.uk/Id/ods-organization-code",
                                "value": "RBA"
                            },
                            "display": "TAUNTON AND SOMERSET NHS FOUNDATION TRUST"
                        }
                    }
                ],
                "sender": {
                    "identifier": {
                        "system": "https://fhir.nhs.uk/Id/ods-organization-code",
                        "value": "X2601"
                    },
                    "display": "NHS Digital Spine"
                },
                "response": {
                    "identifier": "5a8079ae-e430-41ff-89fa-14db08969a19",
                    "code": "ok"
                },
                "focus": [
                    {
                        "reference": "urn:uuid:A7B86F8D-1D7C-FC28-E050-D20AE3A215F4"
                    },
                    {
                        "reference": "urn:uuid:51793ac0-112f-46c7-a891-9af8cefb206e"
                    }
                ]
            }
        },
        {
            "fullUrl": "urn:uuid:A7B86F8D-1D7C-FC28-E050-D20AE3A215F4",
            "resource": {
                "resourceType": "MedicationRequest",
                "extension": [
                    {
                        "url": "https://fhir.nhs.uk/StructureDefinition/Extension-DM-PrescriptionStatusHistory",
                        "extension": [
                            {
                                "url": "status",
                                "valueCoding": {
                                    "system": "https://fhir.nhs.uk/CodeSystem/medicationrequest-status-history",
                                    "code": "R-0001",
                                    "display": "Prescription/item was cancelled"
                                }
                            }
                        ]
                    },
                    {
                        "url": "https://fhir.nhs.uk/StructureDefinition/Extension-DM-ResponsiblePractitioner",
                        "valueReference": {
                            "reference": "urn:uuid:56166769-c1c4-4d07-afa8-132b5dfca645"
                        }
                    }
                ],
                "identifier": [
                    {
                        "system": "https://fhir.nhs.uk/Id/prescription-order-item-number",
                        "value": "A7B86F8D-1D7C-FC28-E050-D20AE3A215F0"
                    }
                ],
                "status": "cancelled",
                "intent": "order",
                "medicationCodeableConcept": {
                    "coding":  [
                        {
                            "system": "http://snomed.info/sct",
                            "code": "763158003",
                            "display": "Medicinal product"
                        }
                    ]
                },
                "subject": {
                    "reference": "urn:uuid:848d8470-bd51-494e-9347-8142ea75cb23"
                },
                "authoredOn": "2019-12-30T12:00:00+00:00",
                "requester": {
                    "reference": "urn:uuid:63aa76ee-4b0d-41d8-97d5-fe86a134736b"
                },
                "groupIdentifier": {
                    "system": "https://fhir.nhs.uk/Id/prescription-order-number",
                    "value": "3C2366-B81001-0A409U"
                },
                "dispenseRequest": {
                    "extension": [
                        {
                            "url": "https://fhir.nhs.uk/StructureDefinition/Extension-DM-PerformerSiteType",
                            "valueCoding": {
                                "system": "https://fhir.nhs.uk/CodeSystem/dispensing-site-preference",
                                "code": "0004"
                            }
                        },
                        {
                            "url": "https://fhir.nhs.uk/StructureDefinition/Extension-controlled-drug-quantity-words",
                            "valueString": "twenty eight"
                        }
                    ],
                    "quantity": {
                        "value": 28,
                        "unit": "tablet",
                        "system": "http://snomed.info/sct",
                        "code": "428673006"
                    },
                    "performer": {
                        "identifier": {
                            "system": "https://fhir.nhs.uk/Id/ods-organization-code",
                            "value": "FX748"
                        }
                    }
                },
                "substitution": {
                    "allowedBoolean": false
                }
            }
        },
        {
            "fullUrl": "urn:uuid:848d8470-bd51-494e-9347-8142ea75cb23",
            "resource": {
                "resourceType": "Patient",
                "identifier": [
                    {
                        "extension": [
                            {
                                "url": "https://fhir.hl7.org.uk/StructureDefinition/Extension-UKCore-NHSNumberVerificationStatus",
                                "valueCodeableConcept": {
                                    "coding": [
                                        {
                                            "system": "https://fhir.hl7.org.uk/CodeSystem/UKCore-NHSNumberVerificationStatus",
                                            "code": "01",
                                            "display": "Number present and verified"
                                        }
                                    ]
                                }
                            }
                        ],
                        "system": "https://fhir.nhs.uk/Id/nhs-number",
                        "value": "9453740519"
                    }
                ],
                "name": [
                    {
                        "use": "official",
                        "family": "CORY",
                        "given": [
                            "ETTA"
                        ],
                        "prefix": [
                            "MISS"
                        ]
                    }
                ],
                "gender": "female",
                "birthDate": "1999-01-04",
                "address": [
                    {
                        "use": "home",
                        "postalCode": "DE21 4QH"
                    }
                ],
                "generalPractitioner": [
                    {
                        "identifier": {
                            "system": "https://fhir.nhs.uk/Id/ods-organization-code",
                            "value": "B81001"
                        }
                    }
                ]
            }
        },
        {
            "fullUrl": "urn:uuid:30b05f09-5dc9-4e8c-8d21-5287e8761fc0",
            "resource": {
                "resourceType": "Practitioner",
                "identifier": [
                    {
                        "system": "https://fhir.nhs.uk/Id/sds-user-id",
                        "value": "3415870201"
                    },
                    {
                        "system": "https://fhir.hl7.org.uk/Id/gmc-number",
                        "value": "123456"
                    }
                ],
                "name": [
                    {
                        "family": "ALI",
                        "given": [
                            "RAZIA"
                        ],
                        "prefix": [
                            "DR"
                        ]
                    }
                ]
            }
        },
        {
            "fullUrl": "urn:uuid:3b4b03a5-52ba-4ba6-9b82-70350aa109d8",
            "resource": {
                "resourceType": "Organization",
                "identifier": [
                    {
                        "system": "https://fhir.nhs.uk/Id/ods-organization-code",
                        "value": "RBA"
                    }
                ],
                "type": [
                    {
                        "coding": [
                            {
                                "system": "https://fhir.nhs.uk/CodeSystem/organisation-role",
                                "code": "RO197",
                                "display": "NHS TRUST"
                            }
                        ]
                    }
                ],
                "name": "TAUNTON AND SOMERSET NHS FOUNDATION TRUST",
                "telecom": [
                    {
                        "system": "phone",
                        "value": "01823333444",
                        "use": "work"
                    }
                ],
                "address": [
                    {
                        "line": [
                            "MUSGROVE PARK HOSPITAL",
                            "PARKFIELD DRIVE",
                            "TAUNTON"
                        ],
                        "postalCode": "TA1 5DA"
                    }
                ]
            }
        },
        {
            "fullUrl": "urn:uuid:56166769-c1c4-4d07-afa8-132b5dfca645",
            "resource": {
                "resourceType": "PractitionerRole",
                "identifier": [
                    {
                        "system": "https://fhir.nhs.uk/Id/sds-role-profile-id",
                        "value": "100102238986"
                    },
                    {
                        "system": "https://fhir.hl7.org.uk/Id/nhsbsa-spurious-code",
                        "value": "2345213"
                    }
                ],
                "practitioner": {
                    "reference": "urn:uuid:30b05f09-5dc9-4e8c-8d21-5287e8761fc0"
                },
                "organization": {
                    "reference": "urn:uuid:3b4b03a5-52ba-4ba6-9b82-70350aa109d8"
                },
                "code": [
                    {
                        "coding": [
                            {
                                "system": "https://fhir.hl7.org.uk/CodeSystem/UKCore-SDSJobRoleName",
                                "code": "R8000",
                                "display": "Clinical Practitioner Access Role"
                            }
                        ]
                    }
                ],
                "healthcareService": [
                    {
                        "reference": "urn:uuid:54b0506d-49af-4245-9d40-d7d64902055e",
                        "display": "SOMERSET BOWEL CANCER SCREENING CENTRE"
                    }
                ],
                "telecom": [
                    {
                        "system": "phone",
                        "value": "01234567890",
                        "use": "work"
                    }
                ]
            }
        },
        
        {
            "fullUrl": "urn:uuid:54b0506d-49af-4245-9d40-d7d64902055e",
            "resource": {
                "resourceType": "HealthcareService",
                "identifier": [
                    {
                        "use": "official",
                        "system": "https://fhir.nhs.uk/Id/ods-organization-code",
                        "value": "A99968"
                    }
                ],
                "active": true,
                "providedBy": {
                    "identifier": {
                        "system": "https://fhir.nhs.uk/Id/ods-organization-code",
                        "value": "RBA"
                    }
                },
                "location": [
                    {
                        "reference": "urn:uuid:8a5d7d67-64fb-44ec-9802-2dc214bb3dcb"
                    }
                ],
                "name": "SOMERSET BOWEL CANCER SCREENING CENTRE",
                "telecom": [
                    {
                        "system": "phone",
                        "value": "01823 333444",
                        "use": "work"
                    }
                ]
            }
        },
        {
            "fullUrl": "urn:uuid:8a5d7d67-64fb-44ec-9802-2dc214bb3dcb",
            "resource": {
                "resourceType": "Location",
                "identifier": [
                    {
                        "system": "https://fhir.rba.nhs.uk/Id/Location",
                        "value": "10008800708"
                    }
                ],
                "status": "active",
                "mode": "instance",
                "address": {
                    "use": "work",
                    "line": [
                        "MUSGROVE PARK HOSPITAL"
                    ],
                    "city": "TAUNTON",
                    "postalCode": "TA1 5DA"
                }
            }
        },
        {
            "fullUrl": "urn:uuid:51793ac0-112f-46c7-a891-9af8cefb206e",
            "resource": {
                "resourceType": "CommunicationRequest",
                "status": "unknown",
                "subject": {
                    "reference": "urn:uuid:848d8470-bd51-494e-9347-8142ea75cb23"
                },
                "payload": [
                    {
                        "contentString": "Please make an appointment to see your GP. Review date due"
                    },
                    {
                        "contentReference": {
                            "reference": "urn:uuid:d0f003a0-8763-43d5-a264-ce52a38901c9",
                            "display": "List of Repeat Medications for re-ordering"
                        }
                    }
                ]
            }
        },
        {
            "fullUrl": "urn:uuid:d0f003a0-8763-43d5-a264-ce52a38901c9",
            "resource": {
                "resourceType": "List",
                "status": "current",
                "mode": "snapshot",
                "code": {
                    "text": "Repeat Medications"
                },
                "subject": {
                    "reference": "urn:uuid:848d8470-bd51-494e-9347-8142ea75cb23"
                },
                "entry": [
                    {
                        "item": {
                            "display": "Bendroflumethiazide 2.5 mg Tablets (3/6)"
                        }
                    },
                    {
                        "item": {
                            "display": "Salbutamol 100micrograms/dose inhaler CFC free 200 dose (2/6)"
                        }
                    }
                ]
            }
        },
        {
            "fullUrl": "urn:uuid:63aa76ee-4b0d-41d8-97d5-fe86a134736b",
            "resource": {
                "resourceType": "PractitionerRole",
                "identifier": [
                    {
                        "system": "https://fhir.nhs.uk/Id/sds-role-profile-id",
                        "value": "223891001086"
                    }
                ],
                "practitioner": {
                    "reference": "urn:uuid:b5a24a70-f503-4517-ba00-930bf5a2e0a1"
                },
                "organization": {
                    "reference": "urn:uuid:3b4b03a5-52ba-4ba6-9b82-70350aa109d8"
                },
                "code": [
                    {
                        "coding": [
                            {
                                "system": "https://fhir.hl7.org.uk/CodeSystem/UKCore-SDSJobRoleName",
                                "code": "R1720",
                                "display": "Clerical Worker"
                            }
                        ]
                    }
                ],
                "healthcareService": [
                    {
                        "reference": "urn:uuid:54b0506d-49af-4245-9d40-d7d64902055e",
                        "display": "SOMERSET BOWEL CANCER SCREENING CENTRE"
                    }
                ],
                "telecom": [
                    {
                        "system": "phone",
                        "value": "01234567890",
                        "use": "work"
                    }
                ]
            }
        },
        {
            "fullUrl": "urn:uuid:b5a24a70-f503-4517-ba00-930bf5a2e0a1",
            "resource": {
                "resourceType": "Practitioner",
                "identifier": [
                    {
                        "system": "https://fhir.nhs.uk/Id/sds-user-id",
                        "value": "8703415201"
                    }
                ],
                "name": [
                    {
                        "family": "SCOTT",
                        "given": [
                            "LIZ"
                        ],
                        "prefix": [
                            "MS"
                        ]
                    }
                ]
            }
        }
    ]
}