{
    "resourceType": "Bundle",
    "id": "prescription-dispense-claim",
    "identifier": {
        "system": "https://tools.ietf.org/html/rfc4122",
        "value": "5A14C91B-B6B7-A8D1-D396-99E26C903C04"
    },
    "type": "message",
    "entry": [
        {
            "fullUrl": "urn:uuid:5A14C91B-B6B7-A8D1-D396-99E26C903C04",
            "resource": {
                "resourceType": "MessageHeader",
                "eventCoding": {
                    "system": "https://fhir.nhs.uk/CodeSystem/message-event",
                    "code": "prescription-claim",
                    "display": "Dispense Notification Claim"
                },
                "destination": {
                    "endpoint": "https://sandbox.api.service.nhs.uk/electronic-prescriptions/$post-message",
                    "receiver": {
                        "identifier": {
                            "system": "https://fhir.nhs.uk/Id/ods-organization-code",
                            "value": "T1270"
                        },
                        "display": "PPA"
                    }
                },
                "sender": {
                    "reference": "urn:uuid:56166769-c1c4-4d07-afa8-132b5dfca666",
                    "display": "Mr Peter Potion"
                },
                "source": {
                    "name": "The Pharmacy System",
                    "endpoint": "urn:nhs-uk:addressing:ods:AB123"
                },
                "reason": {
                    "coding": [
                        {
                            "system": "https://fhir.nhs.uk/CodeSystem/message-reason-prescription",
                            "code": "claim",
                            "display": "Claim"
                        }
                    ]
                },
                "response": {
                    "identifier": "9FBC4386-924F-4025-B8B3-E75819446A45",
                    "code" : "ok"
                },
                "focus": [
                    {
                        "reference": "urn:uuid:4509B70D-D8B8-EA03-1105-64557CB54A29"
                    }
                ]
            }
        },
        {
            "fullUrl": "urn:uuid:4509B70D-D8B8-EA03-1105-64557CB54A29",
            "resource": {
                "resourceType": "Claim",
                "identifier": [
                    {
                        "system": "https://fhir.nhs.uk/Id/prescription-dispense-item-number",
                        "value": "4509B70D-D8B8-EA03-1105-64557CB54A29"
                    }
                ],
                "status": "active",
                "type": {
                    "coding": [
                        {
                            "system": "http://terminology.hl7.org/CodeSystem/claim-type",
                            "code": "pharmacy",
                            "display": "Pharmacy"
                        }
                    ]
                },
                "use": "claim",
                "patient": {
                    "identifier": {
                        "system": "https://fhir.nhs.uk/Id/nhs-number",
                        "value": "2300992742"
                    }
                },
                "created": "2004-09-16T16:30:00+00:00",
                "provider": {
                    "reference": "urn:uuid:3b4b03a5-52ba-4ba6-9b82-70350aa109d8",
                    "display": "The Simple Pharmacy"
                },
                "priority": {
                    "coding": [
                      {
                        "code": "normal"
                      }
                    ]
                  },
                "prescription": {
                    "extension": [
                        {
                            "url": "https://fhir.nhs.uk/StructureDefinition/Extension-DM-GroupIdentifier",
                            "extension": [
                                {
                                    "url": "shortForm",
                                    "valueIdentifier": {
                                        "system": "https://fhir.nhs.uk/Id/prescription-order-number",
                                        "value": "83C40E-A23856-00123C"
                                    }
                                },
                                {
                                    "url": "UUID",
                                    "valueIdentifier": {
                                        "system": "https://fhir.nhs.uk/Id/prescription",
                                        "value": "06167339-9337-D030-0366-514A6A46DA17"
                                    }
                                }
                            ]
                        }
                    ],
                    "display" : "The original prescription"
                },
                "insurance": [
                    {
                        "sequence": 1,
                        "focal": true,
                        "coverage": {
                            "identifier": {
                                "system": "https://fhir.nhs.uk/Id/ods-organization-code",
                                "value": "T1270"
                            },
                            "display": "PPA"
                        }
                    }
                ],
                "item": [
                    {
                        "extension": [
                            {
                                "url": "https://fhir.nhs.uk/StructureDefinition/Extension-DM-SequenceIdentifier",
                                "valueIdentifier": {
                                    "system": "https://fhir.nhs.uk/Id/prescription-order-item-number",
                                    "value": "4509B70D-D8B8-EA03-1105-64557CB54A29"
                                }
                            }
                        ],
                        "sequence": 1,
                        "modifier": {
                            "coding": [
                                {
                                    "system": "https://fhir.nhs.uk/CodeSystem/medicationdispense-type",
                                    "code": "0001",
                                    "display": "Item fully dispensed"
                                }
                            ]
                        },
                        "programCode": [
                            {
                                "coding": [
                                    {
                                        "system": "https://fhir.nhs.uk/CodeSystem/prescription-charge-exemption",
                                        "code": "0001",
                                        "display": "Patient has paid appropriate charges"
                                    }
                                ]
                            }
                        ],
                        "productOrService": {
                            "coding": [
                                {
                                    "system": "http://snomed.info/sct",
                                    "code": "323465006",
                                    "display": "Flucloxacillin 500mg capsules"
                                }
                            ]
                        }
                    },
                    {
                        "extension": [
                            {
                                "url": "https://fhir.nhs.uk/StructureDefinition/Extension-DM-SequenceIdentifier",
                                "valueIdentifier": {
                                    "system": "https://fhir.nhs.uk/Id/prescription-order-item-number",
                                    "value": "06167339-9337-D030-0366-514A6A46DA17"
                                }
                            }
                        ],
                        "sequence": 2,
                        "modifier": {
                            "coding": [
                                {
                                    "system": "https://fhir.nhs.uk/CodeSystem/medicationdispense-type",
                                    "code": "0001",
                                    "display": "Item fully dispensed"
                                }
                            ]
                        },
                        "programCode": [
                            {
                                "coding": [
                                    {
                                        "system": "https://fhir.nhs.uk/CodeSystem/prescription-charge-exemption",
                                        "code": "0001",
                                        "display": "Patient has paid appropriate charges"
                                    }
                                ]
                            }
                        ],
                        "productOrService": {
                            "coding": [
                                {
                                    "system": "http://snomed.info/sct",
                                    "code": "585011000001109",
                                    "display": "Metronidazole 400mg tablets (Teva UK Ltd))"
                                }
                            ]
                        }
                    }
                ]
            }
        },
        {
            "fullUrl": "urn:uuid:56166769-c1c4-4d07-afa8-132b5dfca666",
            "resource": {
                "resourceType": "PractitionerRole",
                "identifier": [
                    {
                        "system": "https://fhir.nhs.uk/Id/sds-role-profile-id",
                        "value": "210987654322"
                    },
                    {
                                "system": "https://fhir.hl7.org.uk/Id/gphc-number",
                                "value": "7654321"
                    }
                ],
                "practitioner": {
                    "reference": "urn:uuid:a8c85454-f8cb-498d-9629-78e2cb5fa47a",
                    "display": "Mr Peter Potion"
                },
                "organization": {
                    "reference": "urn:uuid:3b4b03a5-52ba-4ba6-9b82-70350aa109d8",
                    "display": "The Simple Pharmacy"
                },
                "code": [
                    {
                        "coding": [
                            {
                                "system": "https://fhir.hl7.org.uk/CodeSystem/UKCore-SDSJobRoleName",
                                "code": "R1981",
                                "display": "Community Pharmacist"
                            }
                        ]
                    }
                ],
                "telecom": [
                    {
                        "system": "phone",
                        "value": "01234567890",
                        "use": "work"
                    }
                ]
            }
        },
        {
            "fullUrl": "urn:uuid:a8c85454-f8cb-498d-9629-78e2cb5fa47a",
            "resource": {
                "resourceType": "Practitioner",
                "identifier": [
                    {
                        "system": "https://fhir.nhs.uk/Id/sds-user-id",
                        "value": "156968544265"
                    }
                ],
                "name": [
                    {
                        "family": "Potion",
                        "given": [
                            "Peter"
                        ],
                        "prefix": [
                            "Mr"
                        ]
                    }
                ]
            }
        },
        {
            "fullUrl": "urn:uuid:3b4b03a5-52ba-4ba6-9b82-70350aa109d8",
            "resource": {
                "resourceType": "Organization",
                "identifier": [
                    {
                        "system": "https://fhir.nhs.uk/Id/ods-organization-code",
                        "value": "AB123"
                    }
                ],
                "type": [
                    {
                        "coding": [
                            {
                                "system": "https://fhir.nhs.uk/CodeSystem/organisation-role",
                                "code": "182",
                                "display": "PHARMACY"
                            }
                        ]
                    }
                ],
                "name": "The Simple Pharmacy",
                "telecom": [
                    {
                        "system": "phone",
                        "value": "01234567890",
                        "use": "work"
                    }
                ],
                "address": [
                    {
                        "line": [
                            "1",
                            "The Midway",
                            "Simple Town"
                        ],
                        "postalCode": "AA3 3AA"
                    }
                ]
            }
        }
    ]
}