<Bundle xmlns="http://hl7.org/fhir">
    <id value="40e225a0-8f48-11e8-b568-0800200c9a66"/>
    <meta>
        <lastUpdated value="2018-05-09T10:00:00+00:00"/>
        <profile value="https://fhir.nhs.uk/STU3/StructureDefinition/ITK-Document-Bundle-1"/>
    </meta>
    <identifier>
        <system value="https://tools.ietf.org/html/rfc4122"/>
        <value value="739aeb30-8f48-11e8-b568-0800200c9a66"/>
    </identifier>
    <type value="document"/>
    <!--Pharmacy Immunizations Notification Document-->
    <entry>
        <fullUrl value="urn:uuid:979a4ef0-8b5a-11e8-b568-0800200c9a66"/>
        <!--A resource carrying a set of healthcare-related information about the patient-->
        <resource>
            <Composition xmlns="http://hl7.org/fhir">
                <meta>
                    <profile value="https://fhir.nhs.uk/STU3/StructureDefinition/CareConnect-ITK-DM-Immunization-Composition-1"/>
                </meta>
                <!-- Extension to carry details of the Correspondence Care Setting Type. -->
                <extension url="https://fhir.nhs.uk/STU3/StructureDefinition/Extension-CareSettingType-1">
                    <valueCodeableConcept>
                        <coding>
                            <system value="http://snomed.info/sct"/>
                            <code value="310080006"/>
                            <display value="Pharmacy service"/>
                        </coding>
                    </valueCodeableConcept>
                </extension>
                <identifier>
                    <system value="https://tools.ietf.org/html/rfc4122"/>
                    <value value="86943780-8b5d-11e8-b568-0800200c9a66"/>
                </identifier>
                <!--The workflow/clinical status of this composition. The status is a marker for the clinical standing of the document.-->
                <status value="final"/>
                <type>
                    <!--Digital Medicines document type-->
                    <coding>
                        <system value="http://snomed.info/sct"/>
                        <code value="41000179103"/>
                        <display value="Immunisation record"/>
                    </coding>
                </type>
                <!--Reference to the patient subject of the Composition-->
                <subject>
                    <reference value="urn:uuid:9589fb37-87a2-48d8-968f-b371429209e3"/>
                </subject>
                <!--Reference to the clinical encounter or type of care this documentation is associated with.-->
                <!--The composition editing time, when the composition was last logically changed by the author.-->
                <date value="2018-05-09T10:00:00+00:00"/>
                <!--Identifies who is responsible for the information in the composition, 
not necessarily who typed it in-->
                <author>
                    <!-- WOULD CONSIDER DROPPING THIS ENTRY AND USING DISPLAY REFERENCES ONLY, RECOMMEND USING PROFESSIONAL CODES -->
                    <reference value="urn:uuid:666f8ce8-3f3b-43ac-9f8d-5bb020539d74"/>
                    <display value="SMITH, Eric (Mr)"/>
                </author>
                <title value="Overtown Pharmacy 118 Immunization Record"/>
                <!--Identifies the organization responsible for ongoing maintenance of and access 
to the composition/document information.-->
                <custodian>
                    <identifier>
                        <system value="https://fhir.nhs.uk/Id/ods-organization-code"/>
                        <value value="FA000"/>
                    </identifier>
                    <display value="Overtown Pharmacy"/>
                </custodian>
                <!-- GP Practice-->
                <section>
                    <title value="GP practice"/>
                    <code>
                        <coding>
                            <system value="http://snomed.info/sct"/>
                            <code value="886711000000101"/>
                            <display value="GP practice"/>
                        </coding>
                    </code>
                    <text>
                        <status value="additional"/>
                        <div xmlns="http://www.w3.org/1999/xhtml">
                            <table width="100%">
                                <tbody>
                                    <tr>
                                        <th>GP name</th>
                                        <td>
                                            <p>Prefix: Dr</p>
                                            <p>Given Name: Paul</p>
                                            <p>Family Name: Rastall</p>
                                        </td>
                                    </tr>
                                    <tr>
                                        <th>GP practice identifier</th>
                                        <td>
                                            <p>ODS Organization Code:GP123456</p>
                                        </td>
                                    </tr>
                                    <tr>
                                        <th>GP practice details</th>
                                        <td>
                                            <p>Name: MGP Medical Centre</p>
                                            <p>Address:</p>
                                            <p>Address Line: 1 MGP House, Overtown</p>
                                            <p>City: Leeds</p>
                                            <p>Post Code: LS21 7PA</p>
                                        </td>
                                    </tr>
                                </tbody>
                            </table>
                        </div>
                    </text>
                    <!--Reference to the Organisation entry as the source of information for this section-->
                    <entry>
                        <reference value="urn:uuid:94ca030c-03aa-4dae-8270-c2de2b7907ef"/>
                    </entry>
                </section>
                <!--Immunizations-->
                <section>
                    <title value="Immunizations"/>
                    <code>
                        <coding>
                            <system value="http://snomed.info/sct"/>
                            <code value="1102181000000102"/>
                            <display value="Immunisations"/>
                        </coding>
                    </code>
                    <text>
                        <status value="additional"/>
                        <div xmlns="http://www.w3.org/1999/xhtml">
                            <table width="100%">
                                <tbody>
                                    <tr>
                                        <td>Vaccine product: Seasonal influenza vaccination given by pharmacist.</td>
                                        <td>Serialisation code: xyz991</td>
                                        <td>Site: Upper right arm</td>
                                        <td>Route: Subcutaneous route</td>
                                        <td>Indication: Patient requested procedure.</td>
                                    </tr>
                                    <tr>
                                        <td>Administered by: Mr Eric Smith</td>
                                        <td>GPhC identifier: 2145879</td>
                                        <td>Date Time: 9-May-2018 10:00</td>
                                        <td>Route: Subcutaneous route</td>
                                    </tr>
                                </tbody>
                            </table>
                        </div>
                    </text>
                    <entry>
                        <reference value="urn:uuid:631ec8d3-6341-4c9e-b2a1-131af62718f2"/>
                    </entry>
                </section>
                <!-- Patient demographics-->
                <section>
                    <title value="Patient demographics"/>
                    <code>
                        <coding>
                            <system value="http://snomed.info/sct"/>
                            <code value="886731000000109"/>
                            <display value="Patient demographics"/>
                        </coding>
                    </code>
                    <text>
                        <status value="additional"/>
                        <div xmlns="http://www.w3.org/1999/xhtml">
                            <table width="100%">
                                <tbody>
                                    <tr>
                                        <th>Patient name</th>
                                        <td>
                                            <p>Prefix: Mrs</p>
                                            <p>Given Name: Julie</p>
                                            <p>Family Name: Jones</p>
                                        </td>
                                    </tr>
                                    <tr>
                                        <th>Date of birth</th>
                                        <td>4 May 1959</td>
                                    </tr>
                                    <tr>
                                        <th>Gender</th>
                                        <td>Female</td>
                                    </tr>
                                    <tr>
                                        <th>NHS number</th>
                                        <td>3478526985</td>
                                    </tr>
                                    <tr>
                                        <th>Patient address</th>
                                        <td>
                                            <p>Address Line: 22, Brightside Crescent, Overtown</p>
                                            <p>City: Leeds</p>
                                            <p>Post Code: LS10 4YU</p>
                                        </td>
                                    </tr>
                                    <tr>
                                        <th>Relevant contacts</th>
                                        <td> Name: Philip Jones 
                                 
                                            <p>Relationship: Next of kin</p>
                                            <p>Contact details: Tel. 01138698975 Email. pjones@mymail.com</p>
                                        </td>
                                    </tr>
                                </tbody>
                            </table>
                        </div>
                    </text>
                    <!--reference to further information carried in the patient resource-->
                    <entry>
                        <reference value="urn:uuid:9589fb37-87a2-48d8-968f-b371429209e3"/>
                    </entry>
                </section>
            </Composition>
        </resource>
    </entry>
    <!--Patient's registered GP Practice.-->
    <!-- !!!!!!!!!!! CSV NOT PRESENT !!!!!!!!!!!!!!! -->
    <entry>
        <fullUrl value="urn:uuid:94ca030c-03aa-4dae-8270-c2de2b7907ef"/>
        <resource>
            <Organization xmlns="http://hl7.org/fhir">
                <meta>
                    <profile value="https://fhir.hl7.org.uk/STU3/StructureDefinition/CareConnect-Organization-1"/>
                </meta>
                <identifier>
                    <system value="https://fhir.nhs.uk/Id/ods-organization-code"/>
                    <value value="GP123456"/>
                </identifier>
                <name value="MGP Medical Centre"/>
                <address>
                    <line value="1 MGP House, Overtown"/>
                    <city value="Leeds"/>
                    <postalCode value="LS21 7PA"/>
                </address>
            </Organization>
        </resource>
    </entry>
    <!--Patient associated with the immunisation.-->
    <entry>
        <fullUrl value="urn:uuid:9589fb37-87a2-48d8-968f-b371429209e3"/>
        <resource>
            <Patient xmlns="http://hl7.org/fhir">
                <meta>
                    <profile value="https://fhir.hl7.org.uk/STU3/StructureDefinition/CareConnect-Patient-1"/>
                </meta>
                <identifier>
                    <!-- !!!!!!!!!!! CSV NOT PRESENT !!!!!!!!!!!!!!! -->
                    <extension url="https://fhir.hl7.org.uk/STU3/StructureDefinition/Extension-CareConnect-NHSNumberVerificationStatus-1">
                        <valueCodeableConcept>
                            <coding>
                                <system value="https://fhir.hl7.org.uk/STU3/CodeSystem/CareConnect-NHSNumberVerificationStatus-1"/>
                                <code value="01"/>
                                <display value="Number present and verified"/>
                            </coding>
                        </valueCodeableConcept>
                    </extension>
                    <system value="https://fhir.nhs.uk/Id/nhs-number"/>
                    <!-- CSV NHS_NUMBER -->
                    <value value="3478526985"/>
                </identifier>
                <name>
                    <!-- CSV Not known -->
                    <use value="official"/>
                    <text value="Mrs Julie Jones"/>
                    <!-- CSV PERSON_SURNAME -->
                    <family value="Jones"/>
                    <!-- CSV PERSON_FORENAME -->
                    <given value="Julie"/>
                </name>
                <!-- CSV PERSON_GENDER_CODE Needs mapping -->
                <gender value="female"/>
                <!-- CSV PERSON_DOB -->
                <birthDate value="1959-05-04"/>
                <address>
                    <postalCode value="LS10 4YU"/>
                </address>
                <generalPractitioner>
                    <reference value="urn:uuid:94ca030c-03aa-4dae-8270-c2de2b7907ef"/>
                </generalPractitioner>
            </Patient>
        </resource>
    </entry>
    <!--Immunization administered during the encounter-->
    <entry>
        <fullUrl value="urn:uuid:631ec8d3-6341-4c9e-b2a1-131af62718f2"/>
        <resource>
            <Immunization xmlns="http://hl7.org/fhir">
                <meta>
                    <lastUpdated value="2018-05-09T10:00:00+00:00"/>
                    <profile value="https://fhir.nhs.uk/STU3/StructureDefinition/CareConnect-ITK-DM-Immunization-1"/>
                </meta>
                <extension url="https://fhir.hl7.org.uk/STU3/StructureDefinition/Extension-CareConnect-VaccinationProcedure-1">
                    <valueCodeableConcept>
                        <coding>
                            <system value="http://snomed.info/sct"/>
                            <!-- CSV VACCINATION_PROCEDURE_CODE -->
                            <code value="822851000000102"/>
                            <!-- CSV VACCINATION_PROCEDURE_TERM -->
                            <display value="Seasonal influenza vaccination"/>
                        </coding>
                    </valueCodeableConcept>
                </extension>
                <!-- CSV UNIQUE_ID -->
                <identifier>
                    <system value="https://tools.ietf.org/html/rfc4122"/>
                    <value value="e11ee7ba-368f-4127-9eca-43aaf1509627"/>
                </identifier>
                <!-- CSV ACTION_FLAG needs mapping deleted = entered-in-error | not-done ??? -->
                <status value="completed"/>
                <!-- CSV NOT_GIVEN -->
                <notGiven value="true"/>
                <vaccineCode>
                    <coding>
                        <system value="http://snomed.info/sct"/>
                        <!-- CSV VACCINE_PRODUCT_CODE -->
                        <code value="22704311000001109"/>
                        <!-- CSV VACCINE_PRODUCT_TERM -->
                        <display value="Fluarix Tetra vaccine suspension for injection 0.5ml pre-filled syringes (GlaxoSmithKline UK Ltd)"/>
                    </coding>
                </vaccineCode>
                <patient>
                    <reference value="urn:uuid:9589fb37-87a2-48d8-968f-b371429209e3"/>
                    <display value="JONES, Julie (Mrs)"/>
                </patient>
                <!-- CSV DATE_AND_TIME -->
                <date value="2018-05-09"/>
                <!-- CSV PRIMARY_SOURCE -->
                <primarySource value="true"/>
                <reportOrigin>
                    <coding>
                        <system value="http://hl7.org/fhir/immunization-origin"/>
                        <!-- CSV REPORT_ORIGIN -->
                        <code value="record"/>
                    </coding>
                    <text value="Written Record"/>
                </reportOrigin>
                <location>
                    <identifier>
                        <system value="https://fhir.nhs.uk/Id/ods-organization-code"/>
                        <!-- CSV SITE_CODE this differs from original example but is legit -->
                        <value value="FA000"/>
                    </identifier>
                    <display value="Overtown Pharmacy"/>
                </location>
                <manufacturer>
                    <!-- CSV VACCINE_MANUFACTURER -->
                    <display value="BOOTS"/>
                </manufacturer>
                <!-- csv BATCH_NUMBER -->
                <lotNumber value="abc123"/>
                <site>
                    <coding>
                        <system value="http://snomed.info/sct"/>
                        <!-- CSV SITE_OF_VACCINATION_CODE -->
                        <code value="368209003"/>
                        <!-- CSV SITE_OF_VACCINATION_TERM -->
                        <display value="Right upper arm"/>
                    </coding>
                </site>
                <route>
                    <coding>
                        <system value="http://snomed.info/sct"/>
                        <!-- CSV ROUTE_OF_VACCINATION_CODE -->
                        <code value="34206005"/>
                        <!-- CSV ROUTE_OF_VACCINATION_TERM -->
                        <display value="Subcutaneous route"/>
                    </coding>
                </route>
                <doseQuantity>
                    <!-- csv DOSE_AMOUNT -->
                    <value value="5"/>
                    <!-- CSV DOSE_UNIT_TERM     -->
                    <unit value="pre-filled disposable injection"/>
                    <system value="http://snomed.info/sct"/>
                    <!-- CSV DOSE_UNIT_CODE -->
                    <code value="3318611000001103"/>
                </doseQuantity>
                <practitioner>
                    <actor>
                        <!-- WOULD CONSIDER DROPPING THIS ENTRY AND USING DISPLAY REFERENCES ONLY, RECOMMEND USING PROFESSIONAL CODES -->
                        <reference value="urn:uuid:666f8ce8-3f3b-43ac-9f8d-5bb020539d74"/>
                        <display value="SMITH, Eric (Mr)"/>
                    </actor>
                </practitioner>
                <explanation>
                    <reason>
                        <coding>
                            <system value="http://snomed.info/sct"/>
                            <!-- CSV INDICATION_CODE -->
                            <code value="398192003"/>
                            <!-- CSV INDICATION_TERM -->
                            <display value="Co-morbid conditions"/>
                        </coding>
                    </reason>
                    <reasonNotGiven>
                        <coding>
                            <system value="http://snomed.info/sct"/>
                            <!-- CSV VACCINATION_SITUATION_CODE -->
                            <code value="398192003"/>
                            <!-- CSV VACCINATION_SITUATION_TERM -->
                            <display value="Co-morbid conditions"/>
                        </coding>
                    </reasonNotGiven>
                    <reasonNotGiven>
                        <coding>
                            <system value="http://snomed.info/sct"/>
                            <!-- CSV REASON_NOT_GIVEN_CODE -->
                            <code value="398192003"/>
                            <!-- CSV REASON_NOT_GIVEN_TERM -->
                            <display value="Co-morbid conditions"/>
                        </coding>
                    </reasonNotGiven>
                </explanation>
                <vaccinationProtocol>
                    <!-- CSV DOSE_SEQUENCE -->
                    <doseSequence value="1"/>
                </vaccinationProtocol>
            </Immunization>
        </resource>
    </entry>
    <!--Pharmacist associated with the encounter. -->
    <!-- WOULD CONSIDER DROPPING THIS ENTRY AND USING DISPLAY REFERENCES ONLY -->
    <entry>
        <fullUrl value="urn:uuid:666f8ce8-3f3b-43ac-9f8d-5bb020539d74"/>
        <resource>
            <Practitioner xmlns="http://hl7.org/fhir">
                <meta>
                    <profile value="https://fhir.hl7.org.uk/STU3/StructureDefinition/CareConnect-Practitioner-1"/>
                </meta>
                <!-- CSV THIS IS NOT IN CSV, HAVE SDS_JOB_ROLE_NAME WHICH REQUIRES PRACTITIONER_ROLE -->
                <identifier>
                    <system value="https://fhir.hl7.org.uk/Id/gphc-number"/>
                    <value value="2145879"/>
                </identifier>
                <name>
                    <!-- PERFORMING_PROFESSIONAL_SURNAME -->
                    <family value="Smith"/>
                    <!-- CSV PERFORMING_PROFESSIONAL_FORENAME -->
                    <given value="Eric"/>
                    <prefix value="Mr"/>
                </name>
            </Practitioner>
        </resource>
    </entry>
</Bundle>