{
    "resourceType": "Bundle",
    "id": "435c006d-e311-4c4e-8728-7026ed46dca4",
    "type": "message",
    "entry": [
        {
            "fullUrl": "urn:uuid:3599c0e9-9292-413e-9270-9a1ef1ead99c",
            "resource": {
                "resourceType": "MessageHeader",
                "id": "3599c0e9-9292-413e-9270-9a1ef1ead99c",
                "eventCoding": {
                    "system": "https://fhir.nhs.uk/R4/CodeSystem/message-event",
                    "code": "prescription-order",
                    "display": "Prescription Order"
                },
                "sender": {
                    "reference": "urn:uuid:56166769-c1c4-4d07-afa8-132b5dfca645",
                    "display": "RAZIA|ALI"
                },
                "source": {
                    "extension": [
                        {
                            "url": "https://fhir.nhs.uk/R4/StructureDefinition/Extension-spineEndpoint",
                            "valueIdentifier": {
                                "system": "https://fhir.nhs.uk/Id/spine-ASID",
                                "value": "12456789012"
                            }
                        }
                    ],
                    "name": "DJM",
                    "endpoint": "https://mait.digital.nhs.uk/"
                },
                "focus": [
                    {
                        "reference": "urn:uuid:A7B86F8D-1D6D-FC28-E050-D20AE3A215F0"
                    },
                    {
                        "reference": "urn:uuid:A7B86F8D-1D72-FC28-E050-D20AE3A215F0"
                    },
                    {
                        "reference": "urn:uuid:A7B86F8D-1D77-FC28-E050-D20AE3A215F0"
                    },
                    {
                        "reference": "urn:uuid:A7B86F8D-1D7C-FC28-E050-D20AE3A215F0"
                    },
                    {
                        "reference": "urn:uuid:848d8470-bd51-494e-9347-8142ea75cb23"
                    },
                    {
                        "reference": "urn:uuid:56166769-c1c4-4d07-afa8-132b5dfca645"
                    }
                ]
            }
        },
        {
            "fullUrl": "urn:uuid:848d8470-bd51-494e-9347-8142ea75cb23",
            "resource": {
                "resourceType": "Patient",
                "id": "848d8470-bd51-494e-9347-8142ea75cb23",
                "identifier": [
                    {
                        "extension": [
                            {
                                "url": "https://fhir.nhs.uk/R4/StructureDefinition/Extension-UKCore-NHSNumberVerificationStatus",
                                "valueCodeableConcept": {
                                    "coding": [
                                        {
                                            "system": "https://fhir.nhs.uk/R4/CodeSystem/UKCore-NHSNumberVerificationStatus",
                                            "code": "01",
                                            "display": "Number present and verified"
                                        }
                                    ]
                                }
                            }
                        ],
                        "system": "https://fhir.nhs.uk/Id/nhs-number",
                        "value": "9453740519"
                    }
                ],
                "name": [
                    {
                        "use": "official",
                        "family": "CORY",
                        "given": [
                            "ETTA"
                        ],
                        "prefix": [
                            "MISS"
                        ]
                    }
                ],
                "gender": "female",
                "birthDate": "1999-01-04",
                "address": [
                    {
                        "use": "home",
                        "postalCode": "DE21 4QH"
                    }
                ],
                "managingOrganization": {
                    "identifier": {
                        "system": "https://fhir.nhs.uk/Id/ods-organization-code",
                        "value": "B81001"
                    }
                }
            }
        },
        {
            "fullUrl": "urn:uuid:30b05f09-5dc9-4e8c-8d21-5287e8761fc0",
            "resource": {
                "resourceType": "Practitioner",
                "id": "30b05f09-5dc9-4e8c-8d21-5287e8761fc0",
                "identifier": [
                    {
                        "system": "https://fhir.nhs.uk/Id/sds-user-id",
                        "value": "3415870"
                    }
                ],
                "name": [
                    {
                        "text": "RAZIA|ALI"
                    }
                ]
            }
        },
        {
            "fullUrl": "urn:uuid:3b4b03a5-52ba-4ba6-9b82-70350aa109d8",
            "resource": {
                "resourceType": "Organization",
                "id": "3b4b03a5-52ba-4ba6-9b82-70350aa109d8",
                "identifier": [
                    {
                        "system": "https://fhir.nhs.uk/Id/ods-organization-code",
                        "value": "B81001"
                    }
                ],
                "type": [
                    {
                        "coding": [
                            {
                                "system": "https://fhir.nhs.uk/R4/CodeSystem/organisation-type",
                                "code": "001"
                            }
                        ]
                    }
                ],
                "name": "DR ME AHMED'S PRACTICE",
                "address": [
                    {
                        "line": [
                            "700 HOLDERNESS ROAD",
                            "HULL",
                            "NORTH HUMBERSIDE"
                        ],
                        "postalCode": "HU9 3JA"
                    }
                ],
                "partOf": {
                    "identifier": {
                        "system": "https://fhir.nhs.uk/Id/ods-organization-code",
                        "value": "5E5"
                    }
                }
            }
        },
        {
            "fullUrl": "urn:uuid:56166769-c1c4-4d07-afa8-132b5dfca645",
            "resource": {
                "resourceType": "PractitionerRole",
                "id": "56166769-c1c4-4d07-afa8-132b5dfca645",
                "identifier": [
                    {
                        "system": "https://fhir.nhs.uk/Id/sds-role-profile-id",
                        "value": "100102238986"
                    }
                ],
                "practitioner": {
                    "reference": "urn:uuid:30b05f09-5dc9-4e8c-8d21-5287e8761fc0"
                },
                "organization": {
                    "reference": "urn:uuid:3b4b03a5-52ba-4ba6-9b82-70350aa109d8"
                },
                "code": [
                    {
                        "coding": [
                            {
                                "system": "https://fhir.nhs.uk/R4/CodeSystem/UKCore-SDSJobRoleName",
                                "code": "R8000",
                                "display": "Clinical Practitioner Access Role"
                            }
                        ]
                    }
                ],
                "telecom":  [
                    {
                        "system": "phone",
                        "value": "01234567890",
                        "use": "work"
                    }
                ]
            }
        },
        {
            "fullUrl": "urn:uuid:A7B86F8D-1D6D-FC28-E050-D20AE3A215F0",
            "resource": {
                "resourceType": "MedicationRequest",
                "id": "A7B86F8D-1D6D-FC28-E050-D20AE3A215F0",
                "extension": [
                    {
                        "url": "https://fhir.nhs.uk/R4/StructureDefinition/Extension-prescriptionType",
                        "valueCoding": {
                            "system": "https://fhir.nhs.uk/R4/CodeSystem/prescription-type",
                            "code": "0101"
                        }
                    },
                    {
                        "url": "https://fhir.nhs.uk/R4/StructureDefinition/Extension-DM-ResponsiblePractitioner",
                        "valueReference": {
                            "reference": "urn:uuid:56166769-c1c4-4d07-afa8-132b5dfca645"
                        }
                    }
                ],
                "identifier": [
                    {
                        "system": "https://fhir.nhs.uk/Id/prescription-order-item-number",
                        "value": "A7B86F8D-1D6D-FC28-E050-D20AE3A215F0"
                    }
                ],
                "status": "active",
                "intent": "order",
                "medicationCodeableConcept": {
                    "coding": [
                        {
                            "system": "http://snomed.info/sct",
                            "code": "321196004",
                            "display": "Diazepam 2 mg oral tablet"
                        }
                    ]
                },
                "subject": {
                    "reference": "urn:uuid:848d8470-bd51-494e-9347-8142ea75cb23"
                },
                "authoredOn": "2019-12-30T12:00:00+00:00",
                "requester": {
                    "reference": "urn:uuid:56166769-c1c4-4d07-afa8-132b5dfca645"
                },
                "groupIdentifier": {
                    "extension": [
                        {
                            "url": "https://fhir.nhs.uk/R4/StructureDefinition/Extension-PrescriptionId",
                            "valueIdentifier": {
                               "system": "https://fhir.nhs.uk/Id/prescription",
                                "value" : "A7B86F8D-1CF8-FC28-E050-D20AE3A215F0"

                            } 
                        }
                    ],
                    "system": "https://fhir.nhs.uk/Id/prescription-order-number",
                    "value": "3C2366-B81001-0A409U"
                },
                "courseOfTherapyType": {
                    "coding": [
                        {
                            "system": "https://fhir.nhs.uk/R4/CodeSystem/UKCore-PrescriptionType",
                            "code": "acute",
                            "display": "Acute"
                        }
                    ]
                },
                "dosageInstruction": [
                    {
                        "text": "One to be taken at NIGHT"
                    }
                ],
                "dispenseRequest": {
                    "extension": [
                        {
                            "url": "https://fhir.nhs.uk/R4/StructureDefinition/Extension-performerSiteType",
                            "valueCoding": {
                                "system": "https://fhir.nhs.uk/R4/CodeSystem/dispensing-site-preference",
                                "code": "0004"
                            }
                        }
                    ],
                    "quantity": {
                        "value": 28,
                        "unit": "tablet",
                        "system": "http://snomed.info/sct",
                        "code": "428673006"
                    }
                },
                "substitution": {
                    "allowedBoolean": false
                }
            }
        },
        {
            "fullUrl": "urn:uuid:A7B86F8D-1D72-FC28-E050-D20AE3A215F0",
            "resource": {
                "resourceType": "MedicationRequest",
                "id": "A7B86F8D-1D72-FC28-E050-D20AE3A215F0",
                "extension": [
                    {
                        "url": "https://fhir.nhs.uk/R4/StructureDefinition/Extension-prescriptionType",
                        "valueCoding": {
                            "system": "https://fhir.nhs.uk/R4/CodeSystem/prescription-type",
                            "code": "0101"
                        }
                    },
                    {
                        "url": "https://fhir.nhs.uk/R4/StructureDefinition/Extension-DM-ResponsiblePractitioner",
                        "valueReference": {
                            "reference": "urn:uuid:56166769-c1c4-4d07-afa8-132b5dfca645"
                        }
                    }
                ],
                "identifier": [
                    {
                        "system": "https://fhir.nhs.uk/Id/prescription-order-item-number",
                        "value": "A7B86F8D-1D72-FC28-E050-D20AE3A215F0"
                    }
                ],
                "status": "active",
                "intent": "order",
                "medicationCodeableConcept": {
                    "coding": [
                        {
                            "system": "http://snomed.info/sct",
                            "code": "322236009",
                            "display": "Paracetamol 500 mg oral tablet"
                        }
                    ]
                },
                "subject": {
                    "reference": "urn:uuid:848d8470-bd51-494e-9347-8142ea75cb23"
                },
                "authoredOn": "2019-12-30T12:00:00+00:00",
                "requester": {
                    "reference": "urn:uuid:56166769-c1c4-4d07-afa8-132b5dfca645"
                },
                "groupIdentifier": {
                    "extension": [
                        {
                            "url": "https://fhir.nhs.uk/R4/StructureDefinition/Extension-PrescriptionId",
                            "valueIdentifier": {
                                "system": "https://fhir.nhs.uk/Id/prescription",
                                 "value" : "A7B86F8D-1CF8-FC28-E050-D20AE3A215F0"
                             } 
                        }
                    ],
                    "system": "https://fhir.nhs.uk/Id/prescription-order-number",
                    "value": "3C2366-B81001-0A409U"
                },
                "courseOfTherapyType": {
                    "coding": [
                        {
                            "system": "https://fhir.nhs.uk/R4/CodeSystem/UKCore-PrescriptionType",
                            "code": "acute",
                            "display": "Acute"
                        }
                    ]
                },
                "dosageInstruction": [
                    {
                        "text": "As Directed"
                    }
                ],
                "dispenseRequest": {
                    "extension": [
                        {
                            "url": "https://fhir.nhs.uk/R4/StructureDefinition/Extension-performerSiteType",
                            "valueCoding": {
                                "system": "https://fhir.nhs.uk/R4/CodeSystem/dispensing-site-preference",
                                "code": "0004"
                            }
                        }
                    ],
                    "quantity": {
                        "value": 100,
                        "unit": "tablet",
                        "system": "http://snomed.info/sct",
                        "code": "428673006"
                    }
                },
                "substitution": {
                    "allowedBoolean": false
                }
            }
        },
        {
            "fullUrl": "urn:uuid:A7B86F8D-1D77-FC28-E050-D20AE3A215F0",
            "resource": {
                "resourceType": "MedicationRequest",
                "id": "A7B86F8D-1D77-FC28-E050-D20AE3A215F0",
                "extension": [
                    {
                        "url": "https://fhir.nhs.uk/R4/StructureDefinition/Extension-prescriptionType",
                        "valueCoding": {
                            "system": "https://fhir.nhs.uk/R4/CodeSystem/prescription-type",
                            "code": "0101"
                        }
                    },
                    {
                        "url": "https://fhir.nhs.uk/R4/StructureDefinition/Extension-DM-ResponsiblePractitioner",
                        "valueReference": {
                            "reference": "urn:uuid:56166769-c1c4-4d07-afa8-132b5dfca645"
                        }
                    }
                ],
                "identifier": [
                    {
                        "system": "https://fhir.nhs.uk/Id/prescription-order-item-number",
                        "value": "A7B86F8D-1D77-FC28-E050-D20AE3A215F0"
                    }
                ],
                "status": "active",
                "intent": "order",
                "medicationCodeableConcept": {
                    "coding": [
                        {
                            "system": "http://snomed.info/sct",
                            "code": "321152004",
                            "display": "Temazepam 10 mg oral tablet"
                        }
                    ]
                },
                "subject": {
                    "reference": "urn:uuid:848d8470-bd51-494e-9347-8142ea75cb23"
                },
                "authoredOn": "2019-12-30T12:00:00+00:00",
                "requester": {
                    "reference": "urn:uuid:56166769-c1c4-4d07-afa8-132b5dfca645"
                },
                "groupIdentifier": {
                    "extension": [
                        {
                            "url": "https://fhir.nhs.uk/R4/StructureDefinition/Extension-PrescriptionId",
                            "valueIdentifier": {
                                "system": "https://fhir.nhs.uk/Id/prescription",
                                 "value" : "A7B86F8D-1CF8-FC28-E050-D20AE3A215F0"
 
                             } 
                        }
                    ],
                    "system": "https://fhir.nhs.uk/Id/prescription-order-number",
                    "value": "3C2366-B81001-0A409U"
                },
                "courseOfTherapyType": {
                    "coding": [
                        {
                            "system": "https://fhir.nhs.uk/R4/CodeSystem/UKCore-PrescriptionType",
                            "code": "acute",
                            "display": "Acute"
                        }
                    ]
                },
                "dosageInstruction": [
                    {
                        "text": "One to be taken at NIGHT"
                    }
                ],
                "dispenseRequest": {
                    "extension": [
                        {
                            "url": "https://fhir.nhs.uk/R4/StructureDefinition/Extension-performerSiteType",
                            "valueCoding": {
                                "system": "https://fhir.nhs.uk/R4/CodeSystem/dispensing-site-preference",
                                "code": "0004"
                            }
                        }
                    ],
                    "quantity": {
                        "value": 14,
                        "unit": "tablet",
                        "system": "http://snomed.info/sct",
                        "code": "428673006"
                    }
                },
                "substitution": {
                    "allowedBoolean": false
                }
            }
        },
        {
            "fullUrl": "urn:uuid:A7B86F8D-1D7C-FC28-E050-D20AE3A215F0",
            "resource": {
                "resourceType": "MedicationRequest",
                "id": "A7B86F8D-1D7C-FC28-E050-D20AE3A215F0",
                "extension": [
                    {
                        "url": "https://fhir.nhs.uk/R4/StructureDefinition/Extension-prescriptionType",
                        "valueCoding": {
                            "system": "https://fhir.nhs.uk/R4/CodeSystem/prescription-type",
                            "code": "0101"
                        }
                    },
                    {
                        "url": "https://fhir.nhs.uk/R4/StructureDefinition/Extension-DM-ResponsiblePractitioner",
                        "valueReference": {
                            "reference": "urn:uuid:56166769-c1c4-4d07-afa8-132b5dfca645"
                        }
                    }
                ],
                "identifier": [
                    {
                        "system": "https://fhir.nhs.uk/Id/prescription-order-item-number",
                        "value": "A7B86F8D-1D7C-FC28-E050-D20AE3A215F0"
                    }
                ],
                "status": "active",
                "intent": "order",
                "medicationCodeableConcept": {
                    "coding": [
                        {
                            "system": "http://snomed.info/sct",
                            "code": "322711002",
                            "display": "Morphine sulfate 10mg m/r tablet (product)"
                        }
                    ]
                },
                "subject": {
                    "reference": "urn:uuid:848d8470-bd51-494e-9347-8142ea75cb23"
                },
                "authoredOn": "2019-12-30T12:00:00+00:00",
                "requester": {
                    "reference": "urn:uuid:56166769-c1c4-4d07-afa8-132b5dfca645"
                },
                "groupIdentifier": {
                    "extension": [
                        {
                            "url": "https://fhir.nhs.uk/R4/StructureDefinition/Extension-PrescriptionId",
                            "valueIdentifier": {
                                "system": "https://fhir.nhs.uk/Id/prescription",
                                 "value" : "A7B86F8D-1CF8-FC28-E050-D20AE3A215F0"
                             } 
                        }
                    ],
                    "system": "https://fhir.nhs.uk/Id/prescription-order-number",
                    "value": "3C2366-B81001-0A409U"
                },
                "courseOfTherapyType": {
                    "coding": [
                        {
                            "system": "https://fhir.nhs.uk/R4/CodeSystem/UKCore-PrescriptionType",
                            "code": "acute",
                            "display": "Acute"
                        }
                    ]
                },
                "dosageInstruction": [
                    {
                        "text": "As Directed"
                    }
                ],
                "dispenseRequest": {
                    "extension": [
                        {
                            "url": "https://fhir.nhs.uk/R4/StructureDefinition/Extension-performerSiteType",
                            "valueCoding": {
                                "system": "https://fhir.nhs.uk/R4/CodeSystem/dispensing-site-preference",
                                "code": "0004"
                            }
                        }
                    ],
                    "quantity": {
                        "value": 28,
                        "unit": "tablet",
                        "system": "http://snomed.info/sct",
                        "code": "428673006"
                    }
                },
                "substitution": {
                    "allowedBoolean": false
                }
            }
        }
    ]
}