    <Bundle xmlns="http://hl7.org/fhir">
      <id value="mim-example" />
      <identifier>
        <!--  pertinentInformation2[0].pertinentLineItem.id -->
        <system value="https://tools.ietf.org/html/rfc4122" />
        <value value="f28682c0-50d2-472a-a8f0-477f7ac1b63f" />
      </identifier>
      <type value="message" />
      <entry>
        <fullUrl value="urn:oid:48B07891-1D81-7B99-3BD2-23E242D2DD44" />
        <resource>
          <!-- This is the equivalent of the the Send Message Payload (MCCI_RM010000UK12) -->
          <MessageHeader>
            <id value="48B07891-1D81-7B99-3BD2-23E242D2DD44" />
            <eventCoding>
              <system value="https://fhir.nhs.uk/R4/CodeSystem/message-event" />
              <code value="prescription-order" />
              <display value="Prescription Order" />
            </eventCoding>
            <sender>
              <reference value="urn:uuid:6dc16793-61c2-44b8-8d0f-f872101c016e" />
              <display value="Dr Smith" />
            </sender>
            <source>
              <extension xmlns="http://hl7.org/fhir" url="https://fhir.nhs.uk/R4/StructureDefinition/Extension-spineEndpoint">
                <valueIdentifier>
                  <system value="https://fhir.nhs.uk/Id/spine-ASID" />
                  <value value="747225912019" />
                </valueIdentifier>
              </extension>
              <name value="PAS" />
              <endpoint value="https://fhir.mynhstrust.nhs.uk/R4" />
            </source>
            <focus>
              <reference value="urn:uuid:1E34EE53-397A-2E70-E97C-67B1BD95014D" />
            </focus>
            <focus>
              <reference value="urn:uuid:791C9A65-5C6A-308B-D700-32D247BADB87" />
            </focus>
            <focus>
              <reference value="urn:uuid:C6750CAA-3CA9-4F29-A282-6EE1AA5D7D4C" />
            </focus>
            <focus>
              <reference value="urn:uuid:0f314b9f-5233-42e6-aed3-c436bb9ac8ab" />
            </focus>
            <focus>
              <reference value="urn:uuid:6dc16793-61c2-44b8-8d0f-f872101c016e" />
            </focus>
          </MessageHeader>
        </resource>
      </entry>
      <!-- Beginning of the Parent Prescription payload (PORX_RM132004UK31) -->
      <entry>
        <fullUrl value="urn:uuid:1E34EE53-397A-2E70-E97C-67B1BD95014D" />
        <resource>
          <MedicationRequest>

            <!-- suggest use of pertinentInformation2[0].pertinentLineItem.id this is repeated in the identifier section which is required -->
            <id value="1E34EE53-397A-2E70-E97C-67B1BD95014D" />
            <!-- suggest use of pertinentInformation2[0].pertinentLineItem.code 
            225426007 |Administration of therapeutic substance (procedure)| 
            From Rob Gooch - Hard code this value.
          
            <extension xmlns="http://hl7.org/fhir" url="https://fhir.nhs.uk/R4/StructureDefinition/Extension-procedureCode">
              <valueCodeableConcept>
                <coding>
                  <system value="http://snomed.info/sct" />
                  <code value="243132000" />
                  <display value="Inhaled drug administration (procedure)" />
                </coding>
              </valueCodeableConcept>
            </extension>  -->
            <extension xmlns="http://hl7.org/fhir" url="https://fhir.nhs.uk/R4/StructureDefinition/Extension-prescriptionType">
              <valueCoding>
                <system value="https://fhir.nhs.uk/R4/CodeSystem/prescription-type" />
                <code value="0101" />
                <display value="Primary Care Prescriber – Medical Prescriber" />
              </valueCoding>
            </extension>
            <extension xmlns="http://hl7.org/fhir" url="https://fhir.nhs.uk/R4/StructureDefinition/Extension-DM-ResponsiblePractitioner">
              <valueReference>
                <reference value="urn:uuid:6dc16793-61c2-44b8-8d0f-f872101c016e" />
              </valueReference>
            </extension>
            <!-- pertinentInformation2.pertinentTokenIssued. Not required 
            <extension xmlns="http://hl7.org/fhir" url="https://fhir.nhs.uk/R4/StructureDefinition/Extension-tokenIssued">
              <valueBoolean value="true" />
            </extension> -->
            <!-- Can be pertinentPrescription.id This is:
            
            The Identifier Global datatype flavour is used to carry this information as follows: the root attribute shall contain the value of the DCE UUID

            ?? The reference to DCE gives me the impression this should be the MessageHeader.id
    -->
            <identifier>
              <!--  pertinentInformation2[0].pertinentLineItem.id -->
              <system value="https://fhir.nhs.uk/Id/prescription-order-item-number" />
              <value value="1E34EE53-397A-2E70-E97C-67B1BD95014D" />
            </identifier>
            <status value="active" />
            <intent value="order" />
            <!-- <pertinentInformation2.pertinentLineItem.product.manufacturedProduct.manufacturedRequestedMaterial 
            Code should be in SNOMED CT refset 999000031000001105 |Manufactured material simple reference set (foundation metadata concept)| -->
            <medicationCodeableConcept>
              <coding>
                <system value="http://snomed.info/sct" />
                <code value="320176004" />
                <display value="Salbutamol 100micrograms inhaler (product)" />
              </coding>
            </medicationCodeableConcept>
            <subject>
              <reference value="urn:uuid:C6750CAA-3CA9-4F29-A282-6EE1AA5D7D4C" />
            </subject>
            <!-- ParentPrescription.effectiveTime -->
            <authoredOn value="2004-09-20T10:30:00.000+00:00" />
            <requester>
              <reference value="urn:uuid:6dc16793-61c2-44b8-8d0f-f872101c016e" />
              <display value="Dr Smith" />
            </requester>

            <groupIdentifier>
              <!-- ParentPrescription.id uuid -->
              <extension xmlns="http://hl7.org/fhir" url="https://fhir.nhs.uk/R4/StructureDefinition/Extension-PrescriptionId">
                <valueIdentifier>
                  <system value="https://fhir.nhs.uk/Id/prescription" />
                  <value value="EDD2E9DD-DA0A-C266-A4E3-447C68239524" />
                </valueIdentifier>
              </extension>
              <!-- pertinentPrescription.id 2.16.840.1.113883.2.1.3.2.4.18.8 -->
              <system value="https://fhir.nhs.uk/Id/prescription-order-number" />
              <value value="83C40E-A23856-00123C" />
            </groupIdentifier>
            <!--  <pertinentInformation5.pertinentPrescriptionTreatmentType 
            Was extension in STU3 to courseOfTherapyType url="https://fhir.nhs.uk/fhir/R4/StructureDefinition/Extension-CareConnect-PrescriptionType-1"> -->
            <courseOfTherapyType>
              <coding>
                <system value="http://terminology.hl7.org/CodeSystem/medicationrequest-course-of-therapy"></system>
                <code value="acute" />
                <display value="Acute" />
              </coding>
            </courseOfTherapyType>
            <!-- <pertinentInformation2.pertinentLineItem.pertinentInformation2.pertinentDosageInstructions.value -->
            <dosageInstruction>
              <text value="2 Puffs when required" />
            </dosageInstruction>
            <!-- <pertinentInformation2.pertinentLineItem.component.lineItemQuantity -->
            <dispenseRequest>
              <!-- <pertinentInformation1.pertinentDispensingSitePreference-->
              <extension xmlns="http://hl7.org/fhir" url="https://fhir.nhs.uk/R4/StructureDefinition/Extension-performerType">
                <valueCoding>
                  <system value="https://fhir.nhs.uk/R4/CodeSystem/dispensing-site-preference"></system>
                  <code value="0004" />
                </valueCoding>
              </extension>
              <quantity>
                <value value="200" />
                <unit value="actuation(s)" />
                <system value="http://snomed.info/sct" />
                <code value="732981002" />
              </quantity>
              <performer>
                <identifier>
                  <system value="https://fhir.nhs.uk/Id/ods-organization-code" />
                  <value value="Y12345" />
                </identifier>
              </performer>
            </dispenseRequest>
            <!-- pertinentInformation2.pertinentLineItem.component.seperatableInd value="false"/> check this mapping is correct -->
            <substitution>
              <allowedBoolean value="false" />
            </substitution>
          </MedicationRequest>
        </resource>
      </entry>
      <entry>
        <fullUrl value="urn:uuid:791C9A65-5C6A-308B-D700-32D247BADB87" />
        <resource>
          <MedicationRequest>

            <!-- suggest use of pertinentInformation2[0].pertinentLineItem.id this is repeated in the identifier section which is required -->
            <id value="791C9A65-5C6A-308B-D700-32D247BADB87" />
            <!-- suggest use of pertinentInformation2[0].pertinentLineItem.code 
            <extension xmlns="http://hl7.org/fhir" url="https://fhir.nhs.uk/R4/StructureDefinition/Extension-procedureCode">
              <valueCodeableConcept>
                <coding>
                  <system value="http://snomed.info/sct" />
                  <code value="243132000" />
                  <display value="Inhaled drug administration (procedure)" />
                </coding>
              </valueCodeableConcept>
            </extension> -->
            <extension xmlns="http://hl7.org/fhir" url="https://fhir.nhs.uk/R4/StructureDefinition/Extension-prescriptionType">
              <valueCoding>
                <system value="https://fhir.nhs.uk/R4/CodeSystem/prescription-type" />
                <code value="0101" />
                <display value="Primary Care Prescriber – Medical Prescriber" />
              </valueCoding>
            </extension>
            <extension xmlns="http://hl7.org/fhir" url="https://fhir.nhs.uk/R4/StructureDefinition/Extension-DM-ResponsiblePractitioner">
              <valueReference>
                <reference value="urn:uuid:6dc16793-61c2-44b8-8d0f-f872101c016e" />
              </valueReference>
            </extension>
            <!-- pertinentInformation2.pertinentTokenIssued. Not required 
            <extension xmlns="http://hl7.org/fhir" url="https://fhir.nhs.uk/R4/StructureDefinition/Extension-tokenIssued">
              <valueBoolean value="true" />
            </extension> -->
            <identifier>
              <!--  pertinentInformation2[1].pertinentLineItem.id -->
              <system value="https://fhir.nhs.uk/Id/prescription-order-item-number" />
              <value value="791C9A65-5C6A-308B-D700-32D247BADB87" />
            </identifier>

            <!-- Can be pertinentPrescription.id This is:
            
            The Identifier Global datatype flavour is used to carry this information as follows: the root attribute shall contain the value of the DCE UUID

            ?? The reference to DCE gives me the impression this should be the MessageHeader.id
    -->
            <status value="active" />
            <intent value="order" />
            <!-- <pertinentInformation2.pertinentLineItem.product.manufacturedProduct.manufacturedRequestedMaterial -->
            <medicationCodeableConcept>
              <coding>
                <system value="http://snomed.info/sct" />
                <code value="810211000001105" />
                <display value="Seretide 125 Evohaler (GlaxoSmithKline)" />
              </coding>
            </medicationCodeableConcept>
            <subject>
              <reference value="urn:uuid:C6750CAA-3CA9-4F29-A282-6EE1AA5D7D4C" />
            </subject>
            <!-- ParentPrescription.effectiveTime -->
            <authoredOn value="2004-09-20T10:30:00.000+00:00" />
            <requester>
              <reference value="urn:uuid:6dc16793-61c2-44b8-8d0f-f872101c016e" />
              <display value="Dr Smith" />
            </requester>
            <groupIdentifier>
              <!-- ParentPrescription.id uuid -->
              <extension xmlns="http://hl7.org/fhir" url="https://fhir.nhs.uk/R4/StructureDefinition/Extension-PrescriptionId">
                <valueIdentifier>
                  <system value="https://fhir.nhs.uk/Id/prescription" />
                  <value value="urn:uuid:EDD2E9DD-DA0A-C266-A4E3-447C68239524" />
                </valueIdentifier>
              </extension>
              <!-- pertinentPrescription.id 2.16.840.1.113883.2.1.3.2.4.18.8 -->
              <system value="https://fhir.nhs.uk/Id/prescription-order-number" />
              <value value="83C40E-A23856-00123C" />
            </groupIdentifier>
            <!--  <pertinentInformation5.pertinentPrescriptionTreatmentType 
            Was extension in STU3 to courseOfTherapyType url="https://fhir.nhs.uk/fhir/R4/StructureDefinition/Extension-CareConnect-PrescriptionType-1"> -->
            <courseOfTherapyType>
              <coding>
                <system value="http://terminology.hl7.org/CodeSystem/medicationrequest-course-of-therapy"></system>
                <code value="acute" />
                <display value="Acute" />
              </coding>
            </courseOfTherapyType>
            <!-- <pertinentInformation2.pertinentLineItem.pertinentInformation2.pertinentDosageInstructions.value -->
            <dosageInstruction>
              <text value="2 Puffs twice daily" />
            </dosageInstruction>
            <!-- <pertinentInformation2.pertinentLineItem.component.lineItemQuantity -->
            <dispenseRequest>
              <!-- <pertinentInformation1.pertinentDispensingSitePreference-->
              <extension xmlns="http://hl7.org/fhir" url="https://fhir.nhs.uk/R4/StructureDefinition/Extension-performerType">
                <valueCoding>
                  <system value="https://fhir.nhs.uk/R4/CodeSystem/dispensing-site-preference"></system>
                  <code value="0004" />
                </valueCoding>
              </extension>
              <quantity>
                <value value="240" />
                <unit value="actuation(s)" />
                <system value="http://snomed.info/sct" />
                <code value="732981002" />
              </quantity>
              <performer>
                <identifier>
                  <system value="https://fhir.nhs.uk/Id/ods-organization-code" />
                  <value value="Y12345" />
                </identifier>
              </performer>
            </dispenseRequest>
            <!-- pertinentInformation2.pertinentLineItem.component.seperatableInd value="false"/> -->
            <substitution>
              <allowedBoolean value="false" />
            </substitution>
          </MedicationRequest>
        </resource>
      </entry>
      <entry>
        <fullUrl value="urn:uuid:C6750CAA-3CA9-4F29-A282-6EE1AA5D7D4C" />
        <resource>
          <Patient>
            <id value="C6750CAA-3CA9-4F29-A282-6EE1AA5D7D4C" />
            <!-- `Patient.id -->
            <identifier>
              <!-- will be required to add in extension for verification status. This isn't needed as status is implied (traced) -->
              <extension url="https://fhir.nhs.uk/R4/StructureDefinition/Extension-UKCore-NHSNumberVerificationStatus">
                <valueCodeableConcept>
                  <coding>
                    <system value="https://fhir.nhs.uk/R4/CodeSystem/UKCore-NHSNumberVerificationStatus" />
                    <code value="01" />
                    <display value="Number present and verified" />
                  </coding>
                </valueCodeableConcept>
              </extension>
              <system value="https://fhir.nhs.uk/Id/nhs-number" />
              <value value="9900002717" />
            </identifier>
            <!-- Patient.patientPerson.name -->
            <name>
              <use value="official" />
              <family value="Smith" />
              <given value="Frank" />
              <given value="Simon" />
              <prefix value="Mr" />
            </name>
            <!-- Patient.administrativeGenderCode -->
            <gender value="male" />
            <!-- Patient.birthTime -->
            <birthDate value="1972-12-07" />
            <!-- `Patient.addr use="H" -->
            <address>
              <use value="home" />
              <type value="both" />
              <line value="10, The High Street," />
              <city value="Simple Town" />
              <postalCode value="AA1 1AA" />
            </address>
            <generalPractitioner>

              <reference value="urn:uuid:550692c5-9de4-4b7f-b06e-846b90f9a763" />

              <!-- display not required. Inlcuded to help readbility/navigation-->
              <display value="Dr Nice" />
            </generalPractitioner>
            <managingOrganization>
              <reference value="https://directory.spineservices.nhs.uk/STU3/Organization/Y12345" />
              <type value="Organization" />
              <identifier>
                <system value="https://fhir.nhs.uk/Id/ods-organization-code" />
                <value value="Y12345" />
                <period>
                  <start value="2020-01-01" />
                  <end value="2021-12-31" />
                </period>
              </identifier>
            </managingOrganization>
          </Patient>
        </resource>
      </entry>
      <entry>
        <fullUrl value="urn:uuid:1557E58E-3B1E-41DD-B3B5-D4D393DC5A3D" />
        <resource>
          <!--  This is the person who is authorising the prescription -->
          <Practitioner>
            <id value="1557E58E-3B1E-41DD-B3B5-D4D393DC5A3D" />
            <!-- <AgentPerson classCode="AGNT">.agentPerson  1.2.826.0.1285.0.2.0.65 
            -->
            <identifier>
              <system value="https://fhir.nhs.uk/Id/sds-user-id" />
              <value value="896547302565" />
            </identifier>
            <!-- <AgentPerson classCode="AGNT">.agentPerson.name -->
            <name>
              <use value="official" />
              <family value="Smith" />
              <prefix value="Dr" />
            </name>
          </Practitioner>
        </resource>
      </entry>
      <entry>
        <fullUrl value="urn:uuid:6dc16793-61c2-44b8-8d0f-f872101c016e" />
        <resource>
          <!--  This is the role of the person who is authorising the prescription -->
          <PractitionerRole xmlns="http://hl7.org/fhir">
            <!-- UUID not in Hl7v3 version -->
            <id value="6dc16793-61c2-44b8-8d0f-f872101c016e" />
            <!-- <AgentPerson classCode="AGNT">.id 1.2.826.0.1285.0.2.0.67 -->
            <identifier>
              <system value="https://fhir.nhs.uk/Id/sds-role-profile-id" />
              <value value="125686540025" />
            </identifier>
            <practitioner>
              <reference value="urn:uuid:1557E58E-3B1E-41DD-B3B5-D4D393DC5A3D" />
            </practitioner>
            <organization>
              <reference value="urn:uuid:17c4270d-6966-4788-8cbc-1d1d63536b25" />
            </organization>
            <code>
              <!-- <AgentPerson classCode="AGNT">.id 1.2.826.0.1285.0.2.1.104 -->
              <coding>
                <system value="https://fhir.nhs.uk/R4/CodeSystem/UKCore-SDSJobRoleName" />
                <code value="R8000" />
                <display value="Clinical Practitioner Access Role" />
              </coding>
            </code>
            <!-- <AgentPerson classCode="AGNT">.telecom -->
            <telecom>
              <!-- note mapping of phone to tel: -->
              <system value="phone" />
              <value value="01234567890" />
              <use value="work" />
            </telecom>
          </PractitionerRole>
        </resource>
      </entry>
      <entry>
        <fullUrl value="urn:uuid:17c4270d-6966-4788-8cbc-1d1d63536b25" />
        <resource>
          <!-- <representedOrganization classCode="ORG" determinerCode="INSTANCE"> if the author and registered GP are different you will need two organisations -->
          <Organization xmlns="http://hl7.org/fhir">
            <id value="17c4270d-6966-4788-8cbc-1d1d63536b25" />
            <!-- <id root="1.2.826.0.1285.0.1.10" extension="M85011"/> note this is the wrong OID for Organisation Code, believe a fault in the MiM for EPS  -->
            <identifier>
              <use value="official" />
              <system value="https://fhir.nhs.uk/Id/ods-organization-code" />
              <value value="M85011" />
            </identifier>
            <!-- This seems to be an odd codeSystem need to find source/owner, does not appear to match SDS/ODS held data  -->
            <type>
              <coding>
                <system value="https://fhir.nhs.uk/R4/CodeSystem/organisation-type" />
                <code value="001" />
              </coding>
            </type>
            <name value="Mirfleld Surgery" />
            <telecom>
              <system value="phone" />
              <value value="01234567890" />
              <use value="work" />
            </telecom>
            <address>
              <line value="20 Low street" />
              <city value="Simple town" />
              <postalCode value="AA2 2AA" />
            </address>
            <!-- <healthCareProviderLicense classCode="PROV">  -->
            <partOf>
              <!-- using shortened reference at the moment so missing organisation type <code codeSystem="2.16.840.1.113883.2.1.3.2.4.17.94" code="005"/> -->
              <identifier>
                <system value="https://fhir.nhs.uk/Id/ods-organization-code" />
                <value value="5FE" />
              </identifier>
              <display value="Portsmouth City" />
            </partOf>
          </Organization>
        </resource>
      </entry>
      <entry>
        <fullUrl value="urn:uuid:550692c5-9de4-4b7f-b06e-846b90f9a763" />
        <resource>
          <!-- <responsibleParty typeCode="RESP"  This will normally be the patients GP -->
          <Practitioner>
            <!-- UUID not in Hl7v3 version -->
            <id value="550692c5-9de4-4b7f-b06e-846b90f9a763" />
            <!-- <AgentPerson classCode="AGNT">.agentPerson  1.2.826.0.1285.0.2.0.65 
            -->
            <identifier>
              <system value="https://fhir.nhs.uk/Id/sds-user-id" />
              <value value="777964352001" />
            </identifier>
            <!-- <responsibleParty typeCode="RESP"><AgentPerson classCode="AGNT">.agentPerson.name -->
            <name>
              <use value="official" />
              <family value="Nice" />
              <prefix value="Dr" />
            </name>
          </Practitioner>
        </resource>
      </entry>
      <entry>
        <fullUrl value="urn:uuid:0f314b9f-5233-42e6-aed3-c436bb9ac8ab" />
        <resource>
          <!-- <responsibleParty typeCode="RESP"  This will normally be the patients GP -->
          <PractitionerRole xmlns="http://hl7.org/fhir">
            <id value="0f314b9f-5233-42e6-aed3-c436bb9ac8ab" />
            <!-- <responsibleParty typeCode="RESP"><AgentPerson classCode="AGNT">.id 1.2.826.0.1285.0.2.0.67 -->
            <identifier>
              <system value="https://fhir.nhs.uk/Id/sds-role-profile-id" />
              <value value="787946852679" />
            </identifier>
            <practitioner>
              <reference value="urn:uuid:550692c5-9de4-4b7f-b06e-846b90f9a763" />
            </practitioner>
            <organization>
              <reference value="urn:uuid:17c4270d-6966-4788-8cbc-1d1d63536b25" />
            </organization>
            <code>
              <!-- <responsibleParty typeCode="RESP"><AgentPerson classCode="AGNT">.id 1.2.826.0.1285.0.2.1.104 -->
              <coding>
                <system value="https://fhir.nhs.uk/R4/CodeSystem/UKCore-SDSJobRoleName" />
                <code value="R8000" />
                <display value="Clinical Practitioner Access Role" />
              </coding>
            </code>
            <!-- <AgentPerson classCode="AGNT">.telecom -->
            <telecom>
              <!-- note mapping of phone to tel: -->
              <system value="phone" />
              <value value="01234567890" />
              <use value="work" />
            </telecom>
          </PractitionerRole>
        </resource>
      </entry>
    </Bundle>