<Bundle xmlns="http://hl7.org/fhir">
    <id value="ee86a018-779c-4809-999f-a9d89cdfd30f" />
    <type value="message" />
    <entry>
        <fullUrl value="urn:oid:ed75d3ba-bd49-4ebd-881a-9bec2919962a" />
        <resource>
            <MessageHeader>
                <id value="ed75d3ba-bd49-4ebd-881a-9bec2919962a" />
                <eventCoding>
                    <system value="https://fhir.nhs.uk/R4/CodeSystem/message-event" />
                    <code value="prescription-order" />
                    <display value="Prescription Order" />
                </eventCoding>
                <sender>
                    <reference value="urn:uuid:54f13dfd-5850-4498-a632-8a98f9ee2480" />
                    <display value="Dr Smith" />
                </sender>
                <source>
                    <extension xmlns="http://hl7.org/fhir" url="https://fhir.nhs.uk/R4/StructureDefinition/Extension-spineEndpoint">
                        <valueIdentifier>
                            <system value="https://fhir.nhs.uk/Id/spine-ASID" />
                            <value value="747225912019" />
                        </valueIdentifier>
                    </extension>
                    <name value="PAS" />
                    <endpoint value="https://fhir.hl7.org.uk/taunton/PAS" />
                </source>
                <focus>
                    <reference value="urn:uuid:22a49ecc-eab1-4cc2-ba39-0d34ff8c2bd1" />
                </focus>
                <focus>
                    <reference value="urn:uuid:e0094014-9659-4705-a481-0412eefd9dbc" />
                </focus>
                <focus>
                    <reference value="urn:uuid:c99b7aff-58fc-4e42-b8d4-80ac573e8bff" />
                </focus>
                <focus>
                    <reference value="urn:uuid:46588c8c-c606-420b-b3cc-88fb74f5d41b" />
                </focus>
                <focus>
                    <reference value="urn:uuid:54f13dfd-5850-4498-a632-8a98f9ee2480"></reference>
                </focus>
                <focus>
                    <reference value="urn:uuid:f942fd9b-f423-48c5-84b3-0e76bb4c5da5"></reference>
                </focus>
                <focus>
                    <reference value="urn:uuid:2c396b19-1973-4099-ba57-cb2c123eb9f2"></reference>
                </focus>
            </MessageHeader>
        </resource>
    </entry>
    <entry>
        <fullUrl value="urn:uuid:22a49ecc-eab1-4cc2-ba39-0d34ff8c2bd1" />
        <resource>
            <MedicationRequest xmlns="http://hl7.org/fhir">
                <identifier>
                    <system value="urn:uuid"></system>
                    <value value="9a9e4e11-5596-47bc-9376-21bf9d451905"></value>
                </identifier>
                <status value="active" />
                <intent value="instance-order"></intent>
                <category>
                    <coding>
                        <system value="http://terminology.hl7.org/CodeSystem/medicationrequest-category"></system>
                        <code value="inpatient"></code>
                        <display value="Inpatient"></display>
                    </coding>
                    <text value="Inpatient"></text>
                </category>
                <medicationReference>
                    <reference value="urn:uuid:e0094014-9659-4705-a481-0412eefd9dbc"></reference>
                </medicationReference>
                <subject>
                    <reference value="urn:uuid:c99b7aff-58fc-4e42-b8d4-80ac573e8bff"></reference>
                </subject>
                <encounter>
                    <reference value="urn:uuid:46588c8c-c606-420b-b3cc-88fb74f5d41b" />
                </encounter>
                <authoredOn value="2020-07-09T12:02:49+02:00"></authoredOn>
                <requester>
                    <reference value="urn:uuid:f942fd9b-f423-48c5-84b3-0e76bb4c5da5" />
                    <display value="Dr Smith" />
                </requester>

                <groupIdentifier>
                    <!-- ParentPrescription.id uuid -->
                    <extension xmlns="http://hl7.org/fhir" url="https://fhir.nhs.uk/R4/StructureDefinition/Extension-PrescriptionId">
                        <valueIdentifier>
                            <system value="https://fhir.nhs.uk/Id/prescription" />
                            <value value="c26f0fe5-c084-4320-9c39-3ccdbc0b2e6a" />
                        </valueIdentifier>
                    </extension>
                    <!-- pertinentPrescription.id 2.16.840.1.113883.2.1.3.2.4.18.8 -->
                    <system value="https://fhir.nhs.uk/Id/prescription-order-number" />
                    <value value="248193-923856-00123C" />
                </groupIdentifier>
                <courseOfTherapyType>
                    <coding>
                        <system value="https://fhir.nhs.uk/R4/CodeSystem/UKCore-PrescriptionType"></system>
                        <code value="acute" />
                        <display value="Acute" />
                    </coding>
                </courseOfTherapyType>
                <dosageInstruction>
                    <additionalInstruction>
                        <text value="test c"></text>
                    </additionalInstruction>
                  <!-- need to investigate   <timing>
                        <repeat>
                            <frequency value="3"></frequency>
                            <period value="1"></period>
                          <periodUnit value="d"></periodUnit> 
                            <timeOfDay value="08:00:00"></timeOfDay>
                            <timeOfDay value="13:00:00"></timeOfDay>
                            <timeOfDay value="20:00:00"></timeOfDay>
                        </repeat>
                    </timing> --> 
                    <route>
                        <coding>
                            <system value="http://snomed.info/sct"></system>
                            <code value="26643006"></code>
                            <display value="Oral Use"></display>
                        </coding>
                        <text value="Oral"></text>
                    </route>

                </dosageInstruction>
                <dispenseRequest>
                    <quantity>
                        <value value="300.0" />
                        <unit value="mg" />
                        <system value="http://unitsofmeasure.org" />
                        <code value="mg" />
                    </quantity>
                </dispenseRequest>
                <substitution>
                    <allowedBoolean value="false" />
                </substitution>
            </MedicationRequest>
        </resource>
    </entry>
    <entry>
        <fullUrl value="urn:uuid:e0094014-9659-4705-a481-0412eefd9dbc" />
        <resource>
            <Medication xmlns="http://hl7.org/fhir">
                <id value="e0094014-9659-4705-a481-0412eefd9dbc"></id>
                <code>
                    <coding>
                        <system value="http://snomed.info/sct"></system>
                        <code value="329526003"></code>
                        <display value="Aspirin 300mg dispersible tablet"></display>
                    </coding>
                    <text value="Aspirin 300mg dispersible tablets"></text>
                </code>
                <form>
                    <coding>
                        <system value="http://snomed.info/sct"></system>
                        <code value="35366911000001101"></code>
                        <display value="Dispersible tablet"></display>
                    </coding>
                    <text value="Dispersible tablet"></text>
                </form>
            </Medication>
        </resource>
    </entry>
    <entry>
        <fullUrl value="urn:uuid:c99b7aff-58fc-4e42-b8d4-80ac573e8bff" />
        <resource>
            <Patient xmlns="http://hl7.org/fhir">
                <id value="c99b7aff-58fc-4e42-b8d4-80ac573e8bff"></id>
                <identifier>
                    <system value="https://ThinkEhr/Domain"></system>
                    <value value="default"></value>
                </identifier>
                <identifier>
                    <system value="https://fhir.hl7.org.uk/taunton/PAS"></system>
                    <value value="1007"></value>
                </identifier>
                <identifier>
                    <system value="https://fhir.hl7.org.uk/taunton/MRN"></system>
                    <value value="1007"></value>
                </identifier>
                <identifier>
                    <extension url="https://fhir.nhs.uk/R4/StructureDefinition/Extension-UKCore-NHSNumberVerificationStatus">
                        <valueCodeableConcept>
                            <coding>
                                <system value="https://fhir.nhs.uk/R4/CodeSystem/UKCore-NHSNumberVerificationStatus" />
                                <code value="01" />
                                <display value="Number present and verified" />
                            </coding>
                        </valueCodeableConcept>
                    </extension>
                    <system value="https://fhir.nhs.uk/Id/nhs-number"></system>
                    <value value="1007"></value>
                </identifier>
                <name>
                    <use value="anonymous"></use>
                    <family value="Unknown"></family>
                </name>
                <gender value="unknown" />

                <birthDate value="1972-12-07" />

                <address>
                    <use value="home" />
                    <type value="both" />
                    <line value="10, The High Street," />
                    <city value="Simple Town" />
                    <postalCode value="AA1 1AA" />
                </address>
                <managingOrganization>
                    <identifier>
                        <system value="https://fhir.nhs.uk/Id/ods-organization-code" />
                        <value value="Y12345" />
                    </identifier>
                </managingOrganization>
            </Patient>
        </resource>
    </entry>
    <entry>
        <fullUrl value="urn:uuid:46588c8c-c606-420b-b3cc-88fb74f5d41b" />
        <resource>
            <Encounter xmlns="http://hl7.org/fhir">
                <id value="46588c8c-c606-420b-b3cc-88fb74f5d41b" />
                <identifier>
                    <value value="10071" />
                </identifier>
                <status value="unknown" />
                <class>
                    <system value="http://terminology.hl7.org/CodeSystem/v3-ActCode" />
                    <!--   This doesn't match the MedicationRequest - done on purpose   -->
                    <code value="HH" />
                    <display value="home health" />
                </class>
                <location>
                    <location>
                        <display value="wordsworth" />
                    </location>
                </location>
            </Encounter>
        </resource>
    </entry>
    <entry>
        <fullUrl value="urn:uuid:54f13dfd-5850-4498-a632-8a98f9ee2480" />
        <resource>
            <!--  This is the person who is authorising the prescription -->
            <Practitioner>
                <id value="54f13dfd-5850-4498-a632-8a98f9ee2480" />
                <!-- <AgentPerson classCode="AGNT">.agentPerson  1.2.826.0.1285.0.2.0.65 
            -->
                <identifier>
                    <system value="https://fhir.nhs.uk/Id/sds-user-id" />
                    <value value="896547302565" />
                </identifier>
                <!-- <AgentPerson classCode="AGNT">.agentPerson.name -->
                <name>
                    <use value="official" />
                    <family value="Smith" />
                    <prefix value="Dr" />
                </name>
            </Practitioner>
        </resource>
    </entry>
    <entry>
        <fullUrl value="urn:uuid:f942fd9b-f423-48c5-84b3-0e76bb4c5da5" />
        <resource>
            <!--  This is the role of the person who is authorising the prescription -->
            <PractitionerRole xmlns="http://hl7.org/fhir">
                <!-- UUID not in Hl7v3 version -->
                <id value="f942fd9b-f423-48c5-84b3-0e76bb4c5da5" />
                <!-- <AgentPerson classCode="AGNT">.id 1.2.826.0.1285.0.2.0.67 -->
                <identifier>
                    <system value="https://fhir.nhs.uk/Id/sds-role-profile-id" />
                    <value value="125686540025" />
                </identifier>
                <practitioner>
                    <reference value="urn:uuid:54f13dfd-5850-4498-a632-8a98f9ee2480" />
                </practitioner>
                <organization>
                    <reference value="urn:uuid:2c396b19-1973-4099-ba57-cb2c123eb9f2" />
                </organization>
                <code>
                    <!-- <AgentPerson classCode="AGNT">.id 1.2.826.0.1285.0.2.1.104 -->
                    <coding>
                        <system value="https://fhir.nhs.uk/R4/CodeSystem/UKCore-SDSJobRoleName" />
                        <code value="R8000" />
                        <display value="Clinical Practitioner Access Role" />
                    </coding>
                </code>
                <telecom>
                    <system value="phone" />
                    <value value="01234567890" />
                    <use value="work" />
                </telecom>
            </PractitionerRole>
        </resource>
    </entry>
    <entry>
        <fullUrl value="urn:uuid:2c396b19-1973-4099-ba57-cb2c123eb9f2" />
        <resource>
            <Organization xmlns="http://hl7.org/fhir">
                <id value="2c396b19-1973-4099-ba57-cb2c123eb9f2" />
                <identifier>
                    <use value="official" />
                    <system value="https://fhir.nhs.uk/Id/ods-organization-code" />
                    <value value="RH5" />
                </identifier>
                <type>
                    <coding>
                        <system value="https://fhir.nhs.uk/R4/CodeSystem/organisation-type" />
                        <code value="001" />
                    </coding>
                </type>
                <name value="SOMERSET NHS FOUNDATION TRUST" />
                <telecom>
                    <system value="phone" />
                    <value value="01278 432000" />
                    <use value="work" />
                </telecom>
                <address>
                    <city value="TAUNTON" />
                    <postalCode value="TA1 5DA" />
                </address>

                <partOf>
                    <identifier>
                        <system value="https://fhir.nhs.uk/Id/ods-organization-code" />
                        <value value="RH5" />
                    </identifier>
                    <display value="SOMERSET NHS FOUNDATION TRUST" />
                </partOf>
            </Organization>
        </resource>
    </entry>
</Bundle>