
{
  "resourceType": "Bundle",
  "id": "outpatient-4",
  "identifier": {
    "system": "https://tools.ietf.org/html/rfc4122",
    "value": "46aedf33-61cd-43e8-b7ee-da42d20bdd75"
  },
  "type": "message",
  "entry": [
    {
      "fullUrl": "urn:uuid:3599c0e9-9292-413e-9270-9a1ef1ead99c",
      "resource": {
        "resourceType": "MessageHeader",
        "id": "3599c0e9-9292-413e-9270-9a1ef1ead99c",
        "eventCoding": {
          "system": "https://fhir.nhs.uk/R4/CodeSystem/message-event",
          "code": "prescription-order",
          "display": "Prescription Order"
        },
        "sender": {
          "reference": "urn:uuid:56166769-c1c4-4d07-afa8-132b5dfca645",
          "display": "RAZIA|ALI"
        },
        "source": {
          "extension": [
            {
              "url": "https://fhir.nhs.uk/R4/StructureDefinition/Extension-spineEndpoint",
              "valueIdentifier": {
                "system": "https://fhir.nhs.uk/Id/spine-ASID",
                "value": "12456789012"
              }
            }
          ],
          "name": "DJM",
          "endpoint": "https://mait.digital.nhs.uk/"
        },
        "focus": [
          {
            "reference": "urn:uuid:A7B86F8D-1D77-FC28-E050-D20AE3A215F3"
          },
          {
            "reference": "urn:uuid:A7B86F8D-1D72-FC28-E050-D20AE3A215F2"
          },
          {
            "reference": "urn:uuid:A7B86F8D-1D7C-FC28-E050-D20AE3A215F4"
          },
          {
            "reference": "urn:uuid:A7B86F8D-1D6D-FC28-E050-D20AE3A215F1"
          },
          {
            "reference": "urn:uuid:848d8470-bd51-494e-9347-8142ea75cb23"
          },
          {
            "reference": "urn:uuid:56166769-c1c4-4d07-afa8-132b5dfca645"
          }
        ]
      }
    },
    {
      "fullUrl": "urn:uuid:848d8470-bd51-494e-9347-8142ea75cb23",
      "resource": {
        "resourceType": "Patient",
        "id": "848d8470-bd51-494e-9347-8142ea75cb23",
        "identifier": [
          {
            "extension": [
              {
                "url": "https://fhir.nhs.uk/R4/StructureDefinition/Extension-UKCore-NHSNumberVerificationStatus",
                "valueCodeableConcept": {
                  "coding": [
                    {
                      "system": "https://fhir.nhs.uk/R4/CodeSystem/UKCore-NHSNumberVerificationStatus",
                      "code": "01",
                      "display": "Number present and verified"
                    }
                  ]
                }
              }
            ],
            "system": "https://fhir.nhs.uk/Id/nhs-number",
            "value": "9453740519"
          }
        ],
        "name": [
          {
            "use": "official",
            "family": "CORY",
            "given": [
              "ETTA"
            ],
            "prefix": [
              "MISS"
            ]
          }
        ],
        "gender": "female",
        "birthDate": "1999-01-04",
        "address": [
          {
            "use": "home",
            "postalCode": "DE21 4QH"
          }
        ],
        "managingOrganization": {
          "identifier": {
            "system": "https://fhir.nhs.uk/Id/ods-organization-code",
            "value": "B81001"
          }
        }
      }
    },
    {
      "fullUrl": "urn:uuid:30b05f09-5dc9-4e8c-8d21-5287e8761fc0",
      "resource": {
        "resourceType": "Practitioner",
        "id": "30b05f09-5dc9-4e8c-8d21-5287e8761fc0",
        "identifier": [
          {
            "system": "https://fhir.nhs.uk/Id/sds-user-id",
            "value": "3415870201"
          },
          {
            "system": "https://fhir.hl7.org.uk/Id/gmc-number",
            "value": "123456"
          }
        ],
        "name": [
          {
            "family": "ALI",
            "given": [
              "RAZIA"
            ],
            "prefix": [
              "DR"
            ]
          }
        ]
      }
    },
    {
      "fullUrl": "urn:uuid:3b4b03a5-52ba-4ba6-9b82-70350aa109d8",
      "resource": {
        "resourceType": "Organization",
        "id": "3b4b03a5-52ba-4ba6-9b82-70350aa109d8",
        "identifier": [
          {
            "system": "https://fhir.nhs.uk/Id/ods-organization-code",
            "value": "A1B2C3"
          }
        ],
        "type": [
          {
            "coding": [
              {
                "system": "https://fhir.nhs.uk/R4/CodeSystem/organisation-type",
                "code": "008",
                "display": "Acute Trust"
              }
            ]
          }
        ],
        "name": "MUSGROVE PARK HOSPITAL OUTPATIENS DEPARTMENT",
        "address": [
          {
            "line": [
              "MUSGROVE PARK HOSPITAL",
              "PARKFIELD DRIVE",
              "TAUNTON"
            ],
            "postalCode": "TA1 5DA"
          }
        ],
        "telecom": [
          {
            "system": "phone",
            "value": "01823333444",
            "use": "work"
          }
        ],
        "partOf": {
          "identifier": {
            "system": "https://fhir.nhs.uk/Id/ods-organization-code",
            "value": "RBA"
          },
          "display": "TAUNTON AND SOMERSET NHS FOUNDATION TRUST"
        }
      }
    },
    {
      "fullUrl": "urn:uuid:56166769-c1c4-4d07-afa8-132b5dfca645",
      "resource": {
        "resourceType": "PractitionerRole",
        "id": "56166769-c1c4-4d07-afa8-132b5dfca645",
        "identifier": [
          {
            "system": "https://fhir.nhs.uk/Id/sds-role-profile-id",
            "value": "100102238986"
          },
          {
            "system": "https://fhir.nhs.uk/Id/prescribing-code",
            "value": "2345213"
          }
        ],
        "practitioner": {
          "reference": "urn:uuid:30b05f09-5dc9-4e8c-8d21-5287e8761fc0"
        },
        "organization": {
          "reference": "urn:uuid:3b4b03a5-52ba-4ba6-9b82-70350aa109d8"
        },
        "code": [
          {
            "coding": [
              {
                "system": "https://fhir.nhs.uk/R4/CodeSystem/UKCore-SDSJobRoleName",
                "code": "R8000",
                "display": "Clinical Practitioner Access Role"
              }
            ]
          }
        ],
        "telecom": [
          {
            "system": "phone",
            "value": "01234567890",
            "use": "work"
          }
        ]
      }
    },
    {
      "fullUrl": "urn:uuid:A7B86F8D-1D6D-FC28-E050-D20AE3A215F1",
      "resource": {
        "resourceType": "MedicationRequest",
        "id": "A7B86F8D-1D6D-FC28-E050-D20AE3A215F1",
        "extension": [
          {
            "url": "https://fhir.nhs.uk/R4/StructureDefinition/Extension-prescriptionType",
            "valueCoding": {
              "system": "https://fhir.nhs.uk/R4/CodeSystem/prescription-type",
              "code": "0104"
            }
          }
        ],
        "identifier": [
          {
            "system": "https://fhir.nhs.uk/Id/prescription-order-item-number",
            "value": "A7B86F8D-1D6D-FC28-E050-D20AE3A215F0"
          }
        ],
        "status": "active",
        "intent": "order",
        "category": [
          {
            "coding": [
              {
                "system": "http://terminology.hl7.org/CodeSystem/medicationrequest-category",
                "code": "outpatient",
                "display": "Outpatient"
              }
            ]
          }
        ],
        "medicationCodeableConcept": {
          "coding": [
            {
              "system": "http://snomed.info/sct",
              "code": "321196004",
              "display": "Diazepam 2mg tablets"
            }
          ]
        },
        "subject": {
          "reference": "urn:uuid:848d8470-bd51-494e-9347-8142ea75cb23"
        },
        "authoredOn": "2019-12-30T12:00:00+00:00",
        "requester": {
          "reference": "urn:uuid:56166769-c1c4-4d07-afa8-132b5dfca645"
        },
        "groupIdentifier": {
          "extension": [
            {
              "url": "https://fhir.nhs.uk/R4/StructureDefinition/Extension-PrescriptionId",
              "valueIdentifier": {
                "system": "https://fhir.nhs.uk/Id/prescription",
                "value": "A7B86F8D-1CF8-FC28-E050-D20AE3A215F0"
              }
            }
          ],
          "system": "https://fhir.nhs.uk/Id/prescription-order-number",
          "value": "3C2366-B81001-0A409U"
        },
        "courseOfTherapyType": {
          "coding": [
            {
              "system": "http://terminology.hl7.org/CodeSystem/medicationrequest-course-of-therapy",
              "code": "acute",
              "display": "Acute"
            }
          ]
        },
        "dosageInstruction": [
          {
            "text": "1 tablet, at NIGHT",
            "timing": {
              "repeat": {
                "when": "NIGHT"
              }
            },
            "doseQuantity": {
              "value": 1,
              "unit": "tablet",
              "system": "http://snomed.info/sct",
              "code": "428673006"
            }
          }
        ],
        "dispenseRequest": {
          "extension": [
            {
              "url": "https://fhir.nhs.uk/R4/StructureDefinition/Extension-performerType",
              "valueCoding": {
                "system": "https://fhir.nhs.uk/R4/CodeSystem/dispensing-site-preference",
                "code": "0004"
              }
            }
          ],
          "performer": {
            "identifier": {
              "system": "https://fhir.nhs.uk/Id/ods-organization-code",
              "value": "FX748"
            }
          },
          "quantity": {
            "value": 28,
            "unit": "tablet",
            "system": "http://snomed.info/sct",
            "code": "428673006"
          }
        },
        "substitution": {
          "allowedBoolean": false
        }
      }
    },
    {
      "fullUrl": "urn:uuid:A7B86F8D-1D72-FC28-E050-D20AE3A215F2",
      "resource": {
        "resourceType": "MedicationRequest",
        "id": "A7B86F8D-1D72-FC28-E050-D20AE3A215F2",
        "extension": [
          {
            "url": "https://fhir.nhs.uk/R4/StructureDefinition/Extension-prescriptionType",
            "valueCoding": {
              "system": "https://fhir.nhs.uk/R4/CodeSystem/prescription-type",
              "code": "0104"
            }
          },
          {
            "url": "https://fhir.nhs.uk/R4/StructureDefinition/Extension-DM-ResponsiblePractitioner",
            "valueReference": {
              "reference": "urn:uuid:56166769-c1c4-4d07-afa8-132b5dfca645"
            }
          }
        ],
        "identifier": [
          {
            "system": "https://fhir.nhs.uk/Id/prescription-order-item-number",
            "value": "A7B86F8D-1D72-FC28-E050-D20AE3A215F0"
          }
        ],
        "status": "active",
        "intent": "order",
        "category": [
          {
            "coding": [
              {
                "system": "http://terminology.hl7.org/CodeSystem/medicationrequest-category",
                "code": "outpatient",
                "display": "Outpatient"
              }
            ]
          }
        ],
        "medicationCodeableConcept": {
          "coding": [
            {
              "system": "http://snomed.info/sct",
              "code": "322236009",
              "display": "Paracetamol 500mg tablets"
            }
          ]
        },
        "subject": {
          "reference": "urn:uuid:848d8470-bd51-494e-9347-8142ea75cb23"
        },
        "authoredOn": "2019-12-30T12:00:00+00:00",
        "requester": {
          "reference": "urn:uuid:56166769-c1c4-4d07-afa8-132b5dfca645"
        },
        "groupIdentifier": {
          "extension": [
            {
              "url": "https://fhir.nhs.uk/R4/StructureDefinition/Extension-PrescriptionId",
              "valueIdentifier": {
                "system": "https://fhir.nhs.uk/Id/prescription",
                "value": "A7B86F8D-1CF8-FC28-E050-D20AE3A215F0"
              }
            }
          ],
          "system": "https://fhir.nhs.uk/Id/prescription-order-number",
          "value": "3C2366-B81001-0A409U"
        },
        "courseOfTherapyType": {
          "coding": [
            {
              "system": "http://terminology.hl7.org/CodeSystem/medicationrequest-course-of-therapy",
              "code": "acute",
              "display": "Acute"
            }
          ]
        },
        "dosageInstruction": [
          {
            "text": "as required",
            "asNeededBoolean": true
          }
        ],
        "dispenseRequest": {
          "extension": [
            {
              "url": "https://fhir.nhs.uk/R4/StructureDefinition/Extension-performerType",
              "valueCoding": {
                "system": "https://fhir.nhs.uk/R4/CodeSystem/dispensing-site-preference",
                "code": "0004"
              }
            }
          ],
          "performer": {
            "identifier": {
              "system": "https://fhir.nhs.uk/Id/ods-organization-code",
              "value": "FX748"
            }
          },
          "quantity": {
            "value": 100,
            "unit": "tablet",
            "system": "http://snomed.info/sct",
            "code": "428673006"
          }
        },
        "substitution": {
          "allowedBoolean": false
        }
      }
    },
    {
      "fullUrl": "urn:uuid:A7B86F8D-1D77-FC28-E050-D20AE3A215F3",
      "resource": {
        "resourceType": "MedicationRequest",
        "id": "A7B86F8D-1D77-FC28-E050-D20AE3A215F3",
        "extension": [
          {
            "url": "https://fhir.nhs.uk/R4/StructureDefinition/Extension-prescriptionType",
            "valueCoding": {
              "system": "https://fhir.nhs.uk/R4/CodeSystem/prescription-type",
              "code": "0104"
            }
          },
          {
            "url": "https://fhir.nhs.uk/R4/StructureDefinition/Extension-DM-ResponsiblePractitioner",
            "valueReference": {
              "reference": "urn:uuid:56166769-c1c4-4d07-afa8-132b5dfca645"
            }
          }
        ],
        "identifier": [
          {
            "system": "https://fhir.nhs.uk/Id/prescription-order-item-number",
            "value": "A7B86F8D-1D77-FC28-E050-D20AE3A215F0"
          }
        ],
        "status": "active",
        "intent": "order",
        "category": [
          {
            "coding": [
              {
                "system": "http://terminology.hl7.org/CodeSystem/medicationrequest-category",
                "code": "outpatient",
                "display": "Outpatient"
              }
            ]
          }
        ],
        "medicationCodeableConcept": {
          "coding": [
            {
              "system": "http://snomed.info/sct",
              "code": "321152004",
              "display": "Temazepam 10mg tablets"
            }
          ]
        },
        "subject": {
          "reference": "urn:uuid:848d8470-bd51-494e-9347-8142ea75cb23"
        },
        "authoredOn": "2019-12-30T12:00:00+00:00",
        "requester": {
          "reference": "urn:uuid:56166769-c1c4-4d07-afa8-132b5dfca645"
        },
        "groupIdentifier": {
          "extension": [
            {
              "url": "https://fhir.nhs.uk/R4/StructureDefinition/Extension-PrescriptionId",
              "valueIdentifier": {
                "system": "https://fhir.nhs.uk/Id/prescription",
                "value": "A7B86F8D-1CF8-FC28-E050-D20AE3A215F0"
              }
            }
          ],
          "system": "https://fhir.nhs.uk/Id/prescription-order-number",
          "value": "3C2366-B81001-0A409U"
        },
        "courseOfTherapyType": {
          "coding": [
            {
              "system": "http://terminology.hl7.org/CodeSystem/medicationrequest-course-of-therapy",
              "code": "acute",
              "display": "Acute"
            }
          ]
        },
        "dosageInstruction": [
          {
            "text": "1 tablet, at NIGHT",
            "timing": {
              "repeat": {
                "when": "NIGHT"
              }
            },
            "doseQuantity": {
              "value": 1,
              "unit": "tablet",
              "system": "http://snomed.info/sct",
              "code": "428673006"
            }
          }
        ],
        "dispenseRequest": {
          "extension": [
            {
              "url": "https://fhir.nhs.uk/R4/StructureDefinition/Extension-performerType",
              "valueCoding": {
                "system": "https://fhir.nhs.uk/R4/CodeSystem/dispensing-site-preference",
                "code": "0004"
              }
            }
          ],
          "performer": {
            "identifier": {
              "system": "https://fhir.nhs.uk/Id/ods-organization-code",
              "value": "FX748"
            }
          },
          "quantity": {
            "value": 14,
            "unit": "tablet",
            "system": "http://snomed.info/sct",
            "code": "428673006"
          }
        },
        "substitution": {
          "allowedBoolean": false
        }
      }
    },
    {
      "fullUrl": "urn:uuid:A7B86F8D-1D7C-FC28-E050-D20AE3A215F4",
      "resource": {
        "resourceType": "MedicationRequest",
        "id": "A7B86F8D-1D7C-FC28-E050-D20AE3A215F4",
        "extension": [
          {
            "url": "https://fhir.nhs.uk/R4/StructureDefinition/Extension-prescriptionType",
            "valueCoding": {
              "system": "https://fhir.nhs.uk/R4/CodeSystem/prescription-type",
              "code": "0104"
            }
          },
          {
            "url": "https://fhir.nhs.uk/R4/StructureDefinition/Extension-DM-ResponsiblePractitioner",
            "valueReference": {
              "reference": "urn:uuid:56166769-c1c4-4d07-afa8-132b5dfca645"
            }
          }
        ],
        "identifier": [
          {
            "system": "https://fhir.nhs.uk/Id/prescription-order-item-number",
            "value": "A7B86F8D-1D7C-FC28-E050-D20AE3A215F0"
          }
        ],
        "status": "active",
        "intent": "order",
        "category": [
          {
            "coding": [
              {
                "system": "http://terminology.hl7.org/CodeSystem/medicationrequest-category",
                "code": "outpatient",
                "display": "Outpatient"
              }
            ]
          },
          {
            "coding": [
              {
                "system": "https://fhir.nhs.uk/R4/CodeSystem/medicationrequest-controlled-drug",
                "code": "CD2",
                "display": "Schedule 2"
              }
            ]
          }
        ],
        "medicationCodeableConcept": {
          "coding": [
            {
              "system": "http://snomed.info/sct",
              "code": "36126511000001106",
              "display": "Morphine 10mg modified-release tablets"
            }
          ]
        },
        "subject": {
          "reference": "urn:uuid:848d8470-bd51-494e-9347-8142ea75cb23"
        },
        "authoredOn": "2019-12-30T12:00:00+00:00",
        "requester": {
          "reference": "urn:uuid:56166769-c1c4-4d07-afa8-132b5dfca645"
        },
        "groupIdentifier": {
          "extension": [
            {
              "url": "https://fhir.nhs.uk/R4/StructureDefinition/Extension-PrescriptionId",
              "valueIdentifier": {
                "system": "https://fhir.nhs.uk/Id/prescription",
                "value": "A7B86F8D-1CF8-FC28-E050-D20AE3A215F0"
              }
            }
          ],
          "system": "https://fhir.nhs.uk/Id/prescription-order-number",
          "value": "3C2366-B81001-0A409U"
        },
        "courseOfTherapyType": {
          "coding": [
            {
              "system": "http://terminology.hl7.org/CodeSystem/medicationrequest-course-of-therapy",
              "code": "acute",
              "display": "Acute"
            }
          ]
        },
        "dosageInstruction": [
          {
            "text": "1 tablet, daily",
            "timing": {
              "repeat": {
                "period": 1,
                "periodUnit": "d"
              }
            },
            "doseQuantity": {
              "value": 1,
              "unit": "tablet",
              "system": "http://snomed.info/sct",
              "code": "428673006"
            }
          }
        ],
        "dispenseRequest": {
          "extension": [
            {
              "url": "https://fhir.nhs.uk/R4/StructureDefinition/Extension-performerType",
              "valueCoding": {
                "system": "https://fhir.nhs.uk/R4/CodeSystem/dispensing-site-preference",
                "code": "0004"
              }
            },
            {
              "url": "https://fhir.nhs.uk/R4/StructureDefinition/Extension-controlled-drug-quantity-words",
              "valueString": "twenty eight"
            }
          ],
          "performer": {
            "identifier": {
              "system": "https://fhir.nhs.uk/Id/ods-organization-code",
              "value": "FX748"
            }
          },
          "quantity": {
            "value": 28,
            "unit": "tablet",
            "system": "http://snomed.info/sct",
            "code": "428673006"
          }
        },
        "substitution": {
          "allowedBoolean": false
        }
      }
    }
  ]
}
