{
  "resourceType": "Bundle",
  "id": "outpatient-1b",
  "identifier": {
    "system": "https://tools.ietf.org/html/rfc4122",
    "value": "187ec06a-2823-4ea7-9512-5899af157480"
  },
  "type": "message",
  "entry": [
    {
      "fullUrl": "urn:uuid:a82dc6b9-d27d-462c-8afd-20d39186d8a4",
      "resource": {
        "resourceType": "MessageHeader",
        "id": "a82dc6b9-d27d-462c-8afd-20d39186d8a4",
        "eventCoding": {
          "system": "https://fhir.nhs.uk/R4/CodeSystem/message-event",
          "code": "prescription-order",
          "display": "Prescription Order"
        },
        "sender": {
          "reference": "urn:uuid:56166769-c1c4-4d07-afa8-132b5dfca666",
          "display": "RAZIA|ALI"
        },
        "source": {
          "extension": [
            {
              "url": "https://fhir.nhs.uk/R4/StructureDefinition/Extension-spineEndpoint",
              "valueIdentifier": {
                "system": "https://fhir.nhs.uk/Id/spine-ASID",
                "value": "12456789012"
              }
            }
          ],
          "name": "DJM",
          "endpoint": "https://mait.digital.nhs.uk/"
        },
        "focus": [
          {
            "reference": "urn:uuid:78d3c2eb-009e-4ec8-a358-b042954aa9b2"
          },
          {
            "reference": "urn:uuid:a8c85454-f8cb-498d-9629-78e2cb5fa47a"
          },
          {
            "reference": "urn:uuid:a54219b8-f741-4c47-b662-e4f8dfa49ab6"
          }
        ]
      }
    },
    {
      "fullUrl": "urn:uuid:78d3c2eb-009e-4ec8-a358-b042954aa9b2",
      "resource": {
        "resourceType": "Patient",
        "id": "78d3c2eb-009e-4ec8-a358-b042954aa9b2",
        "identifier": [
          {
            "extension": [
              {
                "url": "https://fhir.nhs.uk/R4/StructureDefinition/Extension-UKCore-NHSNumberVerificationStatus",
                "valueCodeableConcept": {
                  "coding": [
                    {
                      "system": "https://fhir.nhs.uk/R4/CodeSystem/UKCore-NHSNumberVerificationStatus",
                      "code": "01",
                      "display": "Number present and verified"
                    }
                  ]
                }
              }
            ],
            "system": "https://fhir.nhs.uk/Id/nhs-number",
            "value": "9453740519"
          }
        ],
        "name": [
          {
            "use": "official",
            "family": "CORY",
            "given": [
              "ETTA"
            ],
            "prefix": [
              "MISS"
            ]
          }
        ],
        "gender": "female",
        "birthDate": "1999-01-04",
        "address": [
          {
            "use": "home",
            "postalCode": "DE21 4QH"
          }
        ],
        "managingOrganization": {
          "identifier": {
            "system": "https://fhir.nhs.uk/Id/ods-organization-code",
            "value": "B81001"
          }
        }
      }
    },
    {
      "fullUrl": "urn:uuid:a8c85454-f8cb-498d-9629-78e2cb5fa47a",
      "resource": {
        "resourceType": "Practitioner",
        "id": "a8c85454-f8cb-498d-9629-78e2cb5fa47a",
        "identifier": [
          {
            "system": "https://fhir.nhs.uk/Id/sds-user-id",
            "value": "3415870201"
          },
          {
            "system": "https://fhir.hl7.org.uk/Id/gmc-number",
            "value": "123456"
          }
        ],
        "name": [
          {
            "family": "ALI",
            "given": [
              "RAZIA"
            ],
            "prefix": [
              "DR"
            ]
          }
        ]
      }
    },
    {
      "fullUrl": "urn:uuid:3b4b03a5-52ba-4ba6-9b82-70350aa109d8",
      "resource": {
        "resourceType": "Organization",
        "id": "3b4b03a5-52ba-4ba6-9b82-70350aa109d8",
        "identifier": [
          {
            "system": "https://fhir.nhs.uk/Id/ods-organization-code",
            "value": "A1B2C3"
          }
        ],
        "type": [
          {
            "coding": [
              {
                "system": "https://fhir.nhs.uk/R4/CodeSystem/organisation-type",
                "code": "008",
                "display": "Acute Trust"
              }
            ]
          }
        ],
        "name": "MUSGROVE PARK HOSPITAL OUTPATIENS DEPARTMENT",
        "address": [
          {
            "line": [
              "MUSGROVE PARK HOSPITAL",
              "PARKFIELD DRIVE",
              "TAUNTON"
            ],
            "postalCode": "TA1 5DA"
          }
        ],
        "telecom": [
          {
            "system": "phone",
            "value": "01823333444",
            "use": "work"
          }
        ],
        "partOf": {
          "identifier": {
            "system": "https://fhir.nhs.uk/Id/ods-organization-code",
            "value": "RBA"
          },
          "display": "TAUNTON AND SOMERSET NHS FOUNDATION TRUST"
        }
      }
    },
    {
      "fullUrl": "urn:uuid:56166769-c1c4-4d07-afa8-132b5dfca666",
      "resource": {
        "resourceType": "PractitionerRole",
        "id": "56166769-c1c4-4d07-afa8-132b5dfca666",
        "identifier": [
          {
            "system": "https://fhir.nhs.uk/Id/sds-role-profile-id",
            "value": "100102238986"
          },
          {
            "system": "https://fhir.nhs.uk/Id/prescribing-code",
            "value": "2345213"
          }
        ],
        "practitioner": {
          "reference": "urn:uuid:a8c85454-f8cb-498d-9629-78e2cb5fa47a"
        },
        "organization": {
          "reference": "urn:uuid:3b4b03a5-52ba-4ba6-9b82-70350aa109d8"
        },
        "code": [
          {
            "coding": [
              {
                "system": "https://fhir.nhs.uk/R4/CodeSystem/UKCore-SDSJobRoleName",
                "code": "R8000",
                "display": "Clinical Practitioner Access Role"
              }
            ]
          }
        ],
        "telecom": [
          {
            "system": "phone",
            "value": "01234567890",
            "use": "work"
          }
        ]
      }
    },
    {
      "fullUrl": "urn:uuid:a54219b8-f741-4c47-b662-e4f8dfa49ab6",
      "resource": {
        "resourceType": "MedicationRequest",
        "id": "a54219b8-f741-4c47-b662-e4f8dfa49ab6",
        "extension": [
          {
            "url": "https://fhir.nhs.uk/R4/StructureDefinition/Extension-prescriptionType",
            "valueCoding": {
              "system": "https://fhir.nhs.uk/R4/CodeSystem/prescription-type",
              "code": "1001",
              "display": "Outpatient Community Prescriber - Medical Prescriber"
            }
          },
          {
            "url": "https://fhir.nhs.uk/R4/StructureDefinition/Extension-DM-MedicationRequest-Account",
            "valueReference": {
              "identifier": {
                "system": "https://fhir.nhs.uk/Id/ods-organization-code",
                "value": "RBACC01"
              },
              "display": "TAUNTON AND SOMERSET NHS FOUNDATION TRUST COST CENTRE 01"
            }
          }
        ],
        "identifier": [
          {
            "system": "https://fhir.nhs.uk/Id/prescription-order-item-number",
            "value": "a54219b8-f741-4c47-b662-e4f8dfa49ab6"
          }
        ],
        "status": "active",
        "intent": "order",
        "category": [
          {
            "coding": [
              {
                "system": "http://terminology.hl7.org/CodeSystem/medicationrequest-category",
                "code": "outpatient",
                "display": "Outpatient"
              }
            ]
          }
        ],
        "medicationCodeableConcept": {
          "coding": [
            {
              "system": "http://snomed.info/sct",
              "code": "317896006",
              "display": "Aciclovir 3% eye ointment"
            }
          ]
        },
        "subject": {
          "reference": "urn:uuid:78d3c2eb-009e-4ec8-a358-b042954aa9b2"
        },
        "authoredOn": "2020-07-13T12:00:00+00:00",
        "requester": {
          "reference": "urn:uuid:56166769-c1c4-4d07-afa8-132b5dfca666"
        },
        "groupIdentifier": {
          "extension": [
            {
              "url": "https://fhir.nhs.uk/R4/StructureDefinition/Extension-PrescriptionId",
              "valueIdentifier": {
                "system": "https://fhir.nhs.uk/Id/prescription",
                "value": "ad945a29-85f8-439a-b590-6789719adc16"
              }
            }
          ],
          "system": "https://fhir.nhs.uk/Id/prescription-order-number",
          "value": "A3D861-A1B2C3-00BB23"
        },
        "courseOfTherapyType": {
          "coding": [
            {
              "system": "http://terminology.hl7.org/CodeSystem/medicationrequest-course-of-therapy",
              "code": "acute",
              "display": "Acute"
            }
          ]
        },
        "dosageInstruction": [
          {
            "text": "apply 5 times a day, left eye, for 10 days",
            "timing": {
              "repeat": {
                "frequency" : 5,
                "period": 1,
                "periodUnit": "d",
                "boundsDuration": {
                  "value": 10,
                  "unit": "day",
                  "system": "http://unitsofmeasure.org",
                  "code": "d"
                }
              }
            },
            "method": {
              "coding": [
                {
                  "system": "http://snomed.info/sct",
                  "code": "417924000",
                  "display": "apply"
                }
              ]
            },
            "site": {
              "coding": [
                {
                  "system": "http://snomed.info/sct",
                  "code": "8966001",
                  "display": "left eye"
                }
              ]
            }
          }
        ],
        "dispenseRequest": {
          "extension": [
            {
              "url": "https://fhir.nhs.uk/R4/StructureDefinition/Extension-performerSiteType",
              "valueCoding": {
                "system": "https://fhir.nhs.uk/R4/CodeSystem/dispensing-site-preference",
                "code": "P1"
              }
            }
          ],
          "performer": {
            "identifier": {
              "system": "https://fhir.nhs.uk/Id/ods-organization-code",
              "value": "FX748"
            }
          },
          "quantity": {
            "value": 4.5,
            "unit": "gram",
            "system": "http://unitsofmeasure.org",
            "code": "g"
          }
        },
        "substitution": {
          "allowedBoolean": false
        }
      }
    }
  ]
}
